rect1_col,rect1_loc,rect2_col,rect2_loc,rect3_col,rect3_loc,rect4_col,rect4_loc,rect5_col,rect5_loc,rect6_col,rect6_loc,rect7_col,rect7_loc,rect8_col,rect8_loc,corr_col,probe_loc,nBlock,Block1.thisRepN,Block1.thisTrialN,Block1.thisN,Block1.thisIndex,Block2.thisRepN,Block2.thisTrialN,Block2.thisN,Block2.thisIndex,Block3.thisRepN,Block3.thisTrialN,Block3.thisN,Block3.thisIndex,thisRow.t,notes,Instruction.started,key_instruct.started,Instruction.stopped,key_instruct.keys,key_instruct.rt,key_instruct.duration,trial.started,fixation.started,rect1.started,rect2.started,rect3.started,rect4.started,rect5.started,rect6.started,rect7.started,rect8.started,fixation.stopped,rect1.stopped,rect2.stopped,rect3.stopped,rect4.stopped,rect5.stopped,rect6.stopped,rect7.stopped,rect8.stopped,probe.started,slider.started,colobar.started,trial.stopped,slider.response,slider.rt,Rest.started,key_instruct_2.started,Rest.stopped,key_instruct_2.keys,key_instruct_2.rt,key_instruct_2.duration,participant,session,date,expName,psychopyVersion,frameRate,expStart,
,,,,,,,,,,,,,,,,,,,,,,,,,,,,,,,,,0.007255699994857423,0.022816899996541906,4.382025799997791,space,4.344756400001643,None,,,,,,,,,,,,,,,,,,,,,,,,,,,,,,,,774942,001,2024-10-09_20h21.45.031,WorkingMemory,2023.2.1,61.02524858639031,2024-10-09 20h22.42.352854 -0400,
#FF3000,"(-0.2, -0.3)",#FDFF00,"(-0.25, 0.15)",#BBFF00,"(0.25, -0.25)",#FF000C,"(0.05, -0.2)",#FF007E,"(-0.25, -0.05)",#6200FF,"(-0.15, -0.1)",#808080,"(0, 0)",#808080,"(0, 0)",0.03515625,"(-0.2, -0.3)",6,0,0,0,52,,,,,,,,,4.455285099997127,,,,,,,,4.446393599995645,4.455285099997127,6.395948199999111,6.395948199999111,6.395948199999111,6.395948199999111,6.395948199999111,6.395948199999111,6.395948199999111,6.395948199999111,6.463043199997628,6.896016299993789,6.896016299993789,6.896016299993789,6.896016299993789,6.896016299993789,6.896016299993789,6.896016299993789,6.896016299993789,7.877890899995691,7.877890899995691,7.877890899995691,11.467296399998304,0.015740740740740722,6.999507699998503,,,,,,,774942,001,2024-10-09_20h21.45.031,WorkingMemory,2023.2.1,61.02524858639031,2024-10-09 20h22.42.352854 -0400,
#D3FF00,"(0.05, 0)",#00FFCF,"(0.25, 0.1)",#FFD700,"(0.3, 0.15)",#00FF70,"(0.35, 0.2)",#B5FF00,"(0.25, -0.05)",#DF00FF,"(0.1, 0.2)",#00FFFF,"(-0.2, -0.1)",#808080,"(0, 0)",0.19921875,"(0.05, 0)",7,0,1,1,62,,,,,,,,,11.485408699998516,,,,,,,,11.47139949999837,11.485408699998516,13.478685199996107,13.478685199996107,13.478685199996107,13.478685199996107,13.478685199996107,13.478685199996107,13.478685199996107,13.478685199996107,13.495391599994036,13.980435699995724,13.980435699995724,13.980435699995724,13.980435699995724,13.980435699995724,13.980435699995724,13.980435699995724,13.980435699995724,14.878569199994672,14.878569199994672,14.878569199994672,16.904622800000652,0.21203703703703702,5.40593539999827,,,,,,,774942,001,2024-10-09_20h21.45.031,WorkingMemory,2023.2.1,61.02524858639031,2024-10-09 20h22.42.352854 -0400,
#00FF1C,"(0.25, 0.05)",#808080,"(0, 0)",#808080,"(0, 0)",#808080,"(0, 0)",#808080,"(0, 0)",#808080,"(0, 0)",#808080,"(0, 0)",#808080,"(0, 0)",0.35546875,"(0.25, 0.05)",1,0,2,2,4,,,,,,,,,16.92563909999444,,,,,,,,16.905558499995095,16.92563909999444,18.91169919999811,18.91169919999811,18.91169919999811,18.91169919999811,18.91169919999811,18.91169919999811,18.91169919999811,18.91169919999811,18.928661899997678,19.41113100000075,19.41113100000075,19.41113100000075,19.41113100000075,19.41113100000075,19.41113100000075,19.41113100000075,19.41113100000075,20.311060199994245,20.311060199994245,20.311060199994245,21.83555979999801,0.3148148148148148,4.903184899994812,,,,,,,774942,001,2024-10-09_20h21.45.031,WorkingMemory,2023.2.1,61.02524858639031,2024-10-09 20h22.42.352854 -0400,
#0800FF,"(-0.15, 0.15)",#FF004E,"(0, -0.1)",#FF3C00,"(-0.1, 0.05)",#8000FF,"(0.15, -0.1)",#A3FF00,"(0.25, -0.05)",#00FF4C,"(0.35, 0.05)",#FFB900,"(0.1, -0.3)",#00FF8D,"(-0.25, -0.05)",0.67578125,"(-0.15, 0.15)",8,0,3,3,71,,,,,,,,,21.84441649999644,,,,,,,,21.8359352999978,21.84441649999644,23.843597099999897,23.843597099999897,23.843597099999897,23.843597099999897,23.843597099999897,23.843597099999897,23.843597099999897,23.843597099999897,23.843597099999897,24.343708699998388,24.343708699998388,24.343708699998388,24.343708699998388,24.343708699998388,24.343708699998388,24.343708699998388,24.343708699998388,25.2436688999951,25.2436688999951,25.2436688999951,27.34681609999825,0.7092592592592593,5.490579500001331,,,,,,,774942,001,2024-10-09_20h21.45.031,WorkingMemory,2023.2.1,61.02524858639031,2024-10-09 20h22.42.352854 -0400,
#00FFB7,"(-0.05, 0.2)",#0E00FF,"(0, 0.1)",#FF0012,"(-0.25, -0.05)",#FD00FF,"(0.05, -0.05)",#FF2400,"(0.35, 0.2)",#FF00EF,"(0.3, -0.3)",#FF4200,"(0.1, -0.15)",#808080,"(0, 0)",0.45703125,"(-0.05, 0.2)",7,0,4,4,65,,,,,,,,,27.36448599999858,,,,,,,,27.34727019999991,27.36448599999858,29.360971899994183,29.360971899994183,29.360971899994183,29.360971899994183,29.360971899994183,29.360971899994183,29.360971899994183,29.360971899994183,29.37635529999534,29.860419699994964,29.860419699994964,29.860419699994964,29.860419699994964,29.860419699994964,29.860419699994964,29.860419699994964,29.860419699994964,30.759468899996136,30.759468899996136,30.759468899996136,34.55240679999406,0.8481481481481481,7.183799300000828,,,,,,,774942,001,2024-10-09_20h21.45.031,WorkingMemory,2023.2.1,61.02524858639031,2024-10-09 20h22.42.352854 -0400,
#00FF6A,"(-0.2, -0.05)",#A3FF00,"(-0.25, 0)",#007CFF,"(0, -0.3)",#FF0012,"(0.2, 0.05)",#808080,"(0, 0)",#808080,"(0, 0)",#808080,"(0, 0)",#808080,"(0, 0)",0.40625,"(-0.2, -0.05)",4,0,5,5,32,,,,,,,,,34.56251309999789,,,,,,,,34.55294189999404,34.56251309999789,36.55928289999429,36.55928289999429,36.55928289999429,36.55928289999429,36.55928289999429,36.55928289999429,36.55928289999429,36.55928289999429,36.57593819999602,37.05877689999761,37.05877689999761,37.05877689999761,37.05877689999761,37.05877689999761,37.05877689999761,37.05877689999761,37.05877689999761,37.963287499995204,37.963287499995204,37.963287499995204,39.749380099994596,0.4287037037037037,5.171449699999357,,,,,,,774942,001,2024-10-09_20h21.45.031,WorkingMemory,2023.2.1,61.02524858639031,2024-10-09 20h22.42.352854 -0400,
#5000FF,"(-0.35, -0.15)",#00FF16,"(-0.15, -0.15)",#00FF2E,"(0.3, 0.15)",#808080,"(0, 0)",#808080,"(0, 0)",#808080,"(0, 0)",#808080,"(0, 0)",#808080,"(0, 0)",0.72265625,"(-0.35, -0.15)",3,0,6,6,22,,,,,,,,,39.75987659999373,,,,,,,,39.75021939999715,39.75987659999373,41.75827279999794,41.75827279999794,41.75827279999794,41.75827279999794,41.75827279999794,41.75827279999794,41.75827279999794,41.75827279999794,41.774942599993665,42.25977620000049,42.25977620000049,42.25977620000049,42.25977620000049,42.25977620000049,42.25977620000049,42.25977620000049,42.25977620000049,43.1578348999974,43.1578348999974,43.1578348999974,44.653494799997134,0.6518518518518519,4.881670899994788,,,,,,,774942,001,2024-10-09_20h21.45.031,WorkingMemory,2023.2.1,61.02524858639031,2024-10-09 20h22.42.352854 -0400,
#D3FF00,"(-0.3, 0)",#005EFF,"(0.15, 0.1)",#808080,"(0, 0)",#808080,"(0, 0)",#808080,"(0, 0)",#808080,"(0, 0)",#808080,"(0, 0)",#808080,"(0, 0)",0.19921875,"(-0.3, 0)",2,0,7,7,12,,,,,,,,,44.67113539999991,,,,,,,,44.65431049999461,44.67113539999991,46.65715479999926,46.65715479999926,46.65715479999926,46.65715479999926,46.65715479999926,46.65715479999926,46.65715479999926,46.65715479999926,46.67439889999514,47.16138099999807,47.16138099999807,47.16138099999807,47.16138099999807,47.16138099999807,47.16138099999807,47.16138099999807,47.16138099999807,48.06125899999461,48.06125899999461,48.06125899999461,49.92634309999994,0.175,5.246780600005877,,,,,,,774942,001,2024-10-09_20h21.45.031,WorkingMemory,2023.2.1,61.02524858639031,2024-10-09 20h22.42.352854 -0400,
#FF008F,"(-0.1, -0.05)",#26FF00,"(0.3, 0.1)",#D300FF,"(0.2, -0.1)",#0081FF,"(0.25, 0.15)",#D3FF00,"(0.35, 0)",#6800FF,"(-0.3, 0.25)",#808080,"(0, 0)",#808080,"(0, 0)",0.91015625,"(-0.1, -0.05)",6,0,8,8,57,,,,,,,,,49.94260609999765,,,,,,,,49.926780800000415,49.94260609999765,51.9400977999976,51.9400977999976,51.9400977999976,51.9400977999976,51.9400977999976,51.9400977999976,51.9400977999976,51.9400977999976,51.95721549999871,52.43999459999759,52.43999459999759,52.43999459999759,52.43999459999759,52.43999459999759,52.43999459999759,52.43999459999759,52.43999459999759,53.3401298999961,53.3401298999961,53.3401298999961,55.3259659999967,0.8185185185185185,5.382027999999991,,,,,,,774942,001,2024-10-09_20h21.45.031,WorkingMemory,2023.2.1,61.02524858639031,2024-10-09 20h22.42.352854 -0400,
#6E00FF,"(0.35, 0)",#808080,"(0, 0)",#808080,"(0, 0)",#808080,"(0, 0)",#808080,"(0, 0)",#808080,"(0, 0)",#808080,"(0, 0)",#808080,"(0, 0)",0.7421875,"(0.35, 0)",1,0,9,9,3,,,,,,,,,55.34537189999537,,,,,,,,55.326452399996924,55.34537189999537,57.33952370000043,57.33952370000043,57.33952370000043,57.33952370000043,57.33952370000043,57.33952370000043,57.33952370000043,57.33952370000043,57.355972099998326,57.83953879999899,57.83953879999899,57.83953879999899,57.83953879999899,57.83953879999899,57.83953879999899,57.83953879999899,57.83953879999899,58.73899119999987,58.73899119999987,58.73899119999987,62.257950499995786,0.750925925925926,6.914264300001378,,,,,,,774942,001,2024-10-09_20h21.45.031,WorkingMemory,2023.2.1,61.02524858639031,2024-10-09 20h22.42.352854 -0400,
#9DFF00,"(0.1, 0.05)",#00EDFF,"(0, -0.25)",#808080,"(0, 0)",#808080,"(0, 0)",#808080,"(0, 0)",#808080,"(0, 0)",#808080,"(0, 0)",#808080,"(0, 0)",0.234375,"(0.1, 0.05)",2,0,10,10,16,,,,,,,,,62.2717765999987,,,,,,,,62.258290699995996,62.2717765999987,64.27319729999726,64.27319729999726,64.27319729999726,64.27319729999726,64.27319729999726,64.27319729999726,64.27319729999726,64.27319729999726,64.27319729999726,64.77178569999523,64.77178569999523,64.77178569999523,64.77178569999523,64.77178569999523,64.77178569999523,64.77178569999523,64.77178569999523,65.67193849999603,65.67193849999603,65.67193849999603,67.96478989999741,0.2564814814814815,5.686799200004316,,,,,,,774942,001,2024-10-09_20h21.45.031,WorkingMemory,2023.2.1,61.02524858639031,2024-10-09 20h22.42.352854 -0400,
#FF1E00,"(0.05, 0.25)",#E5FF00,"(0.3, 0.15)",#FF001E,"(-0.35, -0.05)",#14FF00,"(0.2, 0.15)",#0EFF00,"(0.25, -0.05)",#00FFBD,"(0.15, -0.25)",#FF00AD,"(0.05, -0.25)",#B5FF00,"(0, -0.05)",0.0234375,"(0.05, 0.25)",8,0,11,11,70,,,,,,,,,67.97552480000013,,,,,,,,67.96539320000011,67.97552480000013,69.9709131999989,69.9709131999989,69.9709131999989,69.9709131999989,69.9709131999989,69.9709131999989,69.9709131999989,69.9709131999989,69.99124160000065,70.4716746999984,70.4716746999984,70.4716746999984,70.4716746999984,70.4716746999984,70.4716746999984,70.4716746999984,70.4716746999984,71.37258219999785,71.37258219999785,71.37258219999785,73.55518049999955,0.0,5.571109099997557,,,,,,,774942,001,2024-10-09_20h21.45.031,WorkingMemory,2023.2.1,61.02524858639031,2024-10-09 20h22.42.352854 -0400,
#8000FF,"(0.35, 0.1)",#0046FF,"(-0.3, 0)",#F7FF00,"(-0.05, -0.15)",#2C00FF,"(-0.2, -0.1)",#00FF9F,"(-0.15, 0.1)",#FFAD00,"(0.1, -0.15)",#0058FF,"(0.1, 0.1)",#808080,"(0, 0)",0.75390625,"(0.35, 0.1)",7,0,12,12,60,,,,,,,,,73.57067079999979,,,,,,,,73.55539609999687,73.57067079999979,75.57107349999569,75.57107349999569,75.57107349999569,75.57107349999569,75.57107349999569,75.57107349999569,75.57107349999569,75.57107349999569,75.57107349999569,76.07036230000085,76.07036230000085,76.07036230000085,76.07036230000085,76.07036230000085,76.07036230000085,76.07036230000085,76.07036230000085,76.97205169999506,76.97205169999506,76.97205169999506,78.95404309999867,0.7694444444444444,5.3806729999996605,,,,,,,774942,001,2024-10-09_20h21.45.031,WorkingMemory,2023.2.1,61.02524858639031,2024-10-09 20h22.42.352854 -0400,
#EBFF00,"(-0.25, -0.25)",#0EFF00,"(0.3, 0.1)",#FF00A7,"(-0.3, 0.1)",#808080,"(0, 0)",#808080,"(0, 0)",#808080,"(0, 0)",#808080,"(0, 0)",#808080,"(0, 0)",0.18359375,"(-0.25, -0.25)",3,0,13,13,23,,,,,,,,,78.96947939999518,,,,,,,,78.95425229999819,78.96947939999518,80.95282749999751,80.95282749999751,80.95282749999751,80.95282749999751,80.95282749999751,80.95282749999751,80.95282749999751,80.95282749999751,80.97045090000029,81.45489639999869,81.45489639999869,81.45489639999869,81.45489639999869,81.45489639999869,81.45489639999869,81.45489639999869,81.45489639999869,82.3530185999989,82.3530185999989,82.3530185999989,84.03803779999726,0.1685185185185185,5.063380199993844,,,,,,,774942,001,2024-10-09_20h21.45.031,WorkingMemory,2023.2.1,61.02524858639031,2024-10-09 20h22.42.352854 -0400,
#FF6C00,"(-0.15, 0.05)",#00EDFF,"(-0.1, -0.2)",#EBFF00,"(0.1, -0.05)",#EB00FF,"(0, -0.3)",#00FF4C,"(0, -0.1)",#91FF00,"(-0.15, -0.2)",#808080,"(0, 0)",#808080,"(0, 0)",0.07421875,"(-0.15, 0.05)",6,0,14,14,51,,,,,,,,,84.0541161000001,,,,,,,,84.03840879999916,84.0541161000001,86.05197309999494,86.05197309999494,86.05197309999494,86.05197309999494,86.05197309999494,86.05197309999494,86.05197309999494,86.05197309999494,86.05197309999494,86.55261409999366,86.55261409999366,86.55261409999366,86.55261409999366,86.55261409999366,86.55261409999366,86.55261409999366,86.55261409999366,87.45465179999883,87.45465179999883,87.45465179999883,88.97618459999649,0.009259259259259245,4.920084600002156,,,,,,,774942,001,2024-10-09_20h21.45.031,WorkingMemory,2023.2.1,61.02524858639031,2024-10-09 20h22.42.352854 -0400,
#FFC500,"(0.2, -0.2)",#D9FF00,"(-0.15, 0.05)",#00FF99,"(-0.15, -0.15)",#00FFED,"(0.3, 0.05)",#808080,"(0, 0)",#808080,"(0, 0)",#808080,"(0, 0)",#808080,"(0, 0)",0.1328125,"(0.2, -0.2)",4,0,15,15,37,,,,,,,,,88.9923209999979,,,,,,,,88.97719929999585,88.9923209999979,90.99128969999583,90.99128969999583,90.99128969999583,90.99128969999583,90.99128969999583,90.99128969999583,90.99128969999583,90.99128969999583,91.00300579999748,91.50148349999654,91.50148349999654,91.50148349999654,91.50148349999654,91.50148349999654,91.50148349999654,91.50148349999654,91.50148349999654,92.38499259999662,92.38499259999662,92.38499259999662,94.35563069999625,0.1027777777777778,5.361205299996072,,,,,,,774942,001,2024-10-09_20h21.45.031,WorkingMemory,2023.2.1,61.02524858639031,2024-10-09 20h22.42.352854 -0400,
#00FF7C,"(-0.2, -0.15)",#00FFF9,"(-0.1, 0)",#FF3C00,"(0, -0.3)",#FF0048,"(-0.25, -0.2)",#02FF00,"(0.3, 0.25)",#E500FF,"(0.25, 0.25)",#20FF00,"(0.3, -0.3)",#808080,"(0, 0)",0.41796875,"(-0.2, -0.15)",7,0,16,16,64,,,,,,,,,94.3686521999989,,,,,,,,94.35597140000027,94.3686521999989,96.36833569999726,96.36833569999726,96.36833569999726,96.36833569999726,96.36833569999726,96.36833569999726,96.36833569999726,96.36833569999726,96.38401189999422,96.86757319999742,96.86757319999742,96.86757319999742,96.86757319999742,96.86757319999742,96.86757319999742,96.86757319999742,96.86757319999742,97.76952199999505,97.76952199999505,97.76952199999505,100.20560109999496,0.4722222222222222,5.832987000001594,,,,,,,774942,001,2024-10-09_20h21.45.031,WorkingMemory,2023.2.1,61.02524858639031,2024-10-09 20h22.42.352854 -0400,
#00FF58,"(0.15, 0.05)",#808080,"(0, 0)",#808080,"(0, 0)",#808080,"(0, 0)",#808080,"(0, 0)",#808080,"(0, 0)",#808080,"(0, 0)",#808080,"(0, 0)",0.39453125,"(0.15, 0.05)",1,0,17,17,9,,,,,,,,,100.21698599999945,,,,,,,,100.20610979999765,100.21698599999945,102.21635409999726,102.21635409999726,102.21635409999726,102.21635409999726,102.21635409999726,102.21635409999726,102.21635409999726,102.21635409999726,102.21635409999726,102.71685919999436,102.71685919999436,102.71685919999436,102.71685919999436,102.71685919999436,102.71685919999436,102.71685919999436,102.71685919999436,103.61699360000057,103.61699360000057,103.61699360000057,105.33741339999688,0.4148148148148148,5.10739850000391,,,,,,,774942,001,2024-10-09_20h21.45.031,WorkingMemory,2023.2.1,61.02524858639031,2024-10-09 20h22.42.352854 -0400,
#00FF70,"(0.35, 0.05)",#D9FF00,"(-0.1, 0.2)",#0058FF,"(0.15, 0.2)",#00FF04,"(0, -0.05)",#FD00FF,"(0.15, -0.25)",#808080,"(0, 0)",#808080,"(0, 0)",#808080,"(0, 0)",0.41015625,"(0.35, 0.05)",5,0,18,18,45,,,,,,,,,105.34934129999601,,,,,,,,105.3379838999972,105.34934129999601,107.33237809999991,107.33237809999991,107.33237809999991,107.33237809999991,107.33237809999991,107.33237809999991,107.33237809999991,107.33237809999991,107.34952099999646,107.83282659999531,107.83282659999531,107.83282659999531,107.83282659999531,107.83282659999531,107.83282659999531,107.83282659999531,107.83282659999531,108.74988469999516,108.74988469999516,108.74988469999516,111.10435489999509,0.44814814814814813,5.738001500001701,,,,,,,774942,001,2024-10-09_20h21.45.031,WorkingMemory,2023.2.1,61.02524858639031,2024-10-09 20h22.42.352854 -0400,
#8000FF,"(0, 0)",#00FF0A,"(0.3, -0.3)",#FF0030,"(0.2, -0.05)",#FF0006,"(-0.35, -0.25)",#CDFF00,"(0.15, 0.1)",#FF4200,"(-0.2, 0)",#2600FF,"(-0.2, -0.15)",#FF4800,"(0.1, -0.25)",0.75390625,"(0, 0)",8,0,19,19,76,,,,,,,,,111.11499270000058,,,,,,,,111.10455359999469,111.11499270000058,113.11527109999588,113.11527109999588,113.11527109999588,113.11527109999588,113.11527109999588,113.11527109999588,113.11527109999588,113.11527109999588,113.11527109999588,113.61910060000082,113.61910060000082,113.61910060000082,113.61910060000082,113.61910060000082,113.61910060000082,113.61910060000082,113.61910060000082,114.51688979999744,114.51688979999744,114.51688979999744,116.42528830000083,0.7592592592592593,5.302236899995478,,,,,,,774942,001,2024-10-09_20h21.45.031,WorkingMemory,2023.2.1,61.02524858639031,2024-10-09 20h22.42.352854 -0400,
#00DBFF,"(-0.15, -0.25)",#00FF70,"(0.15, 0)",#808080,"(0, 0)",#808080,"(0, 0)",#808080,"(0, 0)",#808080,"(0, 0)",#808080,"(0, 0)",#808080,"(0, 0)",0.52734375,"(-0.15, -0.25)",2,0,20,20,19,,,,,,,,,116.43633379999665,,,,,,,,116.42576359999657,116.43633379999665,118.43156289999752,118.43156289999752,118.43156289999752,118.43156289999752,118.43156289999752,118.43156289999752,118.43156289999752,118.43156289999752,118.44809139999415,118.93144619999657,118.93144619999657,118.93144619999657,118.93144619999657,118.93144619999657,118.93144619999657,118.93144619999657,118.93144619999657,119.83154469999863,119.83154469999863,119.83154469999863,122.50026149999758,0.5185185185185185,6.057138899996062,,,,,,,774942,001,2024-10-09_20h21.45.031,WorkingMemory,2023.2.1,61.02524858639031,2024-10-09 20h22.42.352854 -0400,
#FFDD00,"(-0.2, -0.3)",#0034FF,"(-0.35, -0.2)",#FF6600,"(0.15, -0.05)",#3EFF00,"(-0.1, -0.05)",#808080,"(0, 0)",#808080,"(0, 0)",#808080,"(0, 0)",#808080,"(0, 0)",0.1484375,"(-0.2, -0.3)",4,0,21,21,31,,,,,,,,,122.52124529999855,,,,,,,,122.5008553000007,122.52124529999855,124.51790500000061,124.51790500000061,124.51790500000061,124.51790500000061,124.51790500000061,124.51790500000061,124.51790500000061,124.51790500000061,124.5301324999964,125.03492849999748,125.03492849999748,125.03492849999748,125.03492849999748,125.03492849999748,125.03492849999748,125.03492849999748,125.03492849999748,125.91491369999858,125.91491369999858,125.91491369999858,127.74080919999687,0.1685185185185185,5.2099889000019175,,,,,,,774942,001,2024-10-09_20h21.45.031,WorkingMemory,2023.2.1,61.02524858639031,2024-10-09 20h22.42.352854 -0400,
#00FF28,"(-0.25, -0.1)",#808080,"(0, 0)",#808080,"(0, 0)",#808080,"(0, 0)",#808080,"(0, 0)",#808080,"(0, 0)",#808080,"(0, 0)",#808080,"(0, 0)",0.36328125,"(-0.25, -0.1)",1,0,22,22,2,,,,,,,,,127.75161919999664,,,,,,,,127.74133469999651,127.75161919999664,129.74659699999756,129.74659699999756,129.74659699999756,129.74659699999756,129.74659699999756,129.74659699999756,129.74659699999756,129.74659699999756,129.7630707999997,130.2462149999992,130.2462149999992,130.2462149999992,130.2462149999992,130.2462149999992,130.2462149999992,130.2462149999992,130.2462149999992,131.14856319999672,131.14856319999672,131.14856319999672,132.34927210000023,0.2740740740740741,4.593486199999461,,,,,,,774942,001,2024-10-09_20h21.45.031,WorkingMemory,2023.2.1,61.02524858639031,2024-10-09 20h22.42.352854 -0400,
#FFA100,"(0.15, 0.2)",#00C9FF,"(-0.1, -0.25)",#FF007E,"(0.1, 0.2)",#3200FF,"(-0.05, -0.25)",#5000FF,"(0.05, -0.2)",#0070FF,"(0.2, 0.15)",#FF4200,"(0.2, -0.1)",#808080,"(0, 0)",0.109375,"(0.15, 0.2)",7,0,23,23,67,,,,,,,,,132.3623604999957,,,,,,,,132.3497528999942,132.3623604999957,134.36240549999638,134.36240549999638,134.36240549999638,134.36240549999638,134.36240549999638,134.36240549999638,134.36240549999638,134.36240549999638,134.36240549999638,134.86609169999429,134.86609169999429,134.86609169999429,134.86609169999429,134.86609169999429,134.86609169999429,134.86609169999429,134.86609169999429,135.76251739999861,135.76251739999861,135.76251739999861,138.05233459999727,0.12592592592592594,5.683053200002178,,,,,,,774942,001,2024-10-09_20h21.45.031,WorkingMemory,2023.2.1,61.02524858639031,2024-10-09 20h22.42.352854 -0400,
#FF003C,"(0.1, -0.25)",#808080,"(0, 0)",#808080,"(0, 0)",#808080,"(0, 0)",#808080,"(0, 0)",#808080,"(0, 0)",#808080,"(0, 0)",#808080,"(0, 0)",0.96484375,"(0.1, -0.25)",1,0,24,24,1,,,,,,,,,138.0638919999983,,,,,,,,138.0533004999961,138.0638919999983,140.06241469999804,140.06241469999804,140.06241469999804,140.06241469999804,140.06241469999804,140.06241469999804,140.06241469999804,140.06241469999804,140.0784485999975,140.56167769999593,140.56167769999593,140.56167769999593,140.56167769999593,140.56167769999593,140.56167769999593,140.56167769999593,140.56167769999593,141.46159500000067,141.46159500000067,141.46159500000067,142.85400089999894,0.016666666666666663,4.77955149999616,,,,,,,774942,001,2024-10-09_20h21.45.031,WorkingMemory,2023.2.1,61.02524858639031,2024-10-09 20h22.42.352854 -0400,
#00FFDB,"(0.1, -0.15)",#FF3C00,"(0.3, 0.15)",#FF7200,"(0.25, -0.3)",#D3FF00,"(0.3, 0.05)",#0800FF,"(0.2, -0.3)",#56FF00,"(-0.35, -0.1)",#004CFF,"(-0.3, 0.25)",#8BFF00,"(0, -0.15)",0.48046875,"(0.1, -0.15)",8,0,25,25,79,,,,,,,,,142.86768779999693,,,,,,,,142.85449909999443,142.86768779999693,144.86099049999757,144.86099049999757,144.86099049999757,144.86099049999757,144.86099049999757,144.86099049999757,144.86099049999757,144.86099049999757,144.8783609999955,145.36191139999573,145.36191139999573,145.36191139999573,145.36191139999573,145.36191139999573,145.36191139999573,145.36191139999573,145.36191139999573,146.2610485999976,146.2610485999976,146.2610485999976,148.27874819999852,0.49907407407407406,5.400009400000272,,,,,,,774942,001,2024-10-09_20h21.45.031,WorkingMemory,2023.2.1,61.02524858639031,2024-10-09 20h22.42.352854 -0400,
#008DFF,"(-0.05, -0.05)",#FF009B,"(0.2, 0.2)",#00E1FF,"(-0.2, 0.05)",#FF006C,"(0.15, -0.05)",#808080,"(0, 0)",#808080,"(0, 0)",#808080,"(0, 0)",#808080,"(0, 0)",0.578125,"(-0.05, -0.05)",4,0,26,26,33,,,,,,,,,148.2936927999981,,,,,,,,148.27895100000023,148.2936927999981,150.2954685999939,150.2954685999939,150.2954685999939,150.2954685999939,150.2954685999939,150.2954685999939,150.2954685999939,150.2954685999939,150.2954685999939,150.81251929999416,150.81251929999416,150.81251929999416,150.81251929999416,150.81251929999416,150.81251929999416,150.81251929999416,150.81251929999416,151.6768776999961,151.6768776999961,151.6768776999961,153.26218289999815,0.5462962962962963,4.973562999999558,,,,,,,774942,001,2024-10-09_20h21.45.031,WorkingMemory,2023.2.1,61.02524858639031,2024-10-09 20h22.42.352854 -0400,
#00FFB1,"(-0.2, -0.2)",#FF4200,"(-0.2, -0.05)",#02FF00,"(-0.35, -0.2)",#0087FF,"(0.35, 0)",#00FF1C,"(0.1, -0.3)",#FF005A,"(0, -0.25)",#808080,"(0, 0)",#808080,"(0, 0)",0.453125,"(-0.2, -0.2)",6,0,27,27,59,,,,,,,,,153.27658510000037,,,,,,,,153.26257590000023,153.27658510000037,155.27632599999924,155.27632599999924,155.27632599999924,155.27632599999924,155.27632599999924,155.27632599999924,155.27632599999924,155.27632599999924,155.27632599999924,155.77678589999414,155.77678589999414,155.77678589999414,155.77678589999414,155.77678589999414,155.77678589999414,155.77678589999414,155.77678589999414,156.6607182999942,156.6607182999942,156.6607182999942,160.83297609999863,0.43796296296296294,7.54943369999819,,,,,,,774942,001,2024-10-09_20h21.45.031,WorkingMemory,2023.2.1,61.02524858639031,2024-10-09 20h22.42.352854 -0400,
#0087FF,"(0.05, 0.1)",#00F9FF,"(0, 0.25)",#00FF6A,"(0.25, 0.2)",#44FF00,"(0.35, 0.15)",#62FF00,"(-0.05, -0.05)",#85FF00,"(0.2, -0.05)",#808080,"(0, 0)",#808080,"(0, 0)",0.58203125,"(0.05, 0.1)",6,0,28,28,58,,,,,,,,,160.85227459999442,,,,,,,,160.83399699999427,160.85227459999442,162.8472968999995,162.8472968999995,162.8472968999995,162.8472968999995,162.8472968999995,162.8472968999995,162.8472968999995,162.8472968999995,162.85820499999681,163.3615054999973,163.3615054999973,163.3615054999973,163.3615054999973,163.3615054999973,163.3615054999973,163.3615054999973,163.3615054999973,164.2416058999952,164.2416058999952,164.2416058999952,166.2300396999999,0.562037037037037,5.37041180000233,,,,,,,774942,001,2024-10-09_20h21.45.031,WorkingMemory,2023.2.1,61.02524858639031,2024-10-09 20h22.42.352854 -0400,
#7A00FF,"(0.05, 0.05)",#BBFF00,"(0.25, -0.25)",#808080,"(0, 0)",#808080,"(0, 0)",#808080,"(0, 0)",#808080,"(0, 0)",#808080,"(0, 0)",#808080,"(0, 0)",0.75,"(0.05, 0.05)",2,0,29,29,13,,,,,,,,,166.24117079999996,,,,,,,,166.23047089999454,166.24117079999996,168.24184749999404,168.24184749999404,168.24184749999404,168.24184749999404,168.24184749999404,168.24184749999404,168.24184749999404,168.24184749999404,168.24184749999404,168.74154019999696,168.74154019999696,168.74154019999696,168.74154019999696,168.74154019999696,168.74154019999696,168.74154019999696,168.74154019999696,169.64368889999605,169.64368889999605,169.64368889999605,172.60885389999748,0.7648148148148148,6.3571350000056555,,,,,,,774942,001,2024-10-09_20h21.45.031,WorkingMemory,2023.2.1,61.02524858639031,2024-10-09 20h22.42.352854 -0400,
#5C00FF,"(0.1, 0.25)",#808080,"(0, 0)",#808080,"(0, 0)",#808080,"(0, 0)",#808080,"(0, 0)",#808080,"(0, 0)",#808080,"(0, 0)",#808080,"(0, 0)",0.73046875,"(0.1, 0.25)",1,0,30,30,8,,,,,,,,,172.6248456999965,,,,,,,,172.60911320000014,172.6248456999965,174.60908229999768,174.60908229999768,174.60908229999768,174.60908229999768,174.60908229999768,174.60908229999768,174.60908229999768,174.60908229999768,174.62423470000067,175.1239854999949,175.1239854999949,175.1239854999949,175.1239854999949,175.1239854999949,175.1239854999949,175.1239854999949,175.1239854999949,176.0251317999937,176.0251317999937,176.0251317999937,177.9597427999979,0.7157407407407408,5.3297798999992665,,,,,,,774942,001,2024-10-09_20h21.45.031,WorkingMemory,2023.2.1,61.02524858639031,2024-10-09 20h22.42.352854 -0400,
#FFD100,"(-0.2, -0.05)",#808080,"(0, 0)",#808080,"(0, 0)",#808080,"(0, 0)",#808080,"(0, 0)",#808080,"(0, 0)",#808080,"(0, 0)",#808080,"(0, 0)",0.140625,"(-0.2, -0.05)",1,0,31,31,0,,,,,,,,,177.97331929999928,,,,,,,,177.96030359999713,177.97331929999928,179.97865420000016,179.97865420000016,179.97865420000016,179.97865420000016,179.97865420000016,179.97865420000016,179.97865420000016,179.97865420000016,179.97865420000016,180.47366899999906,180.47366899999906,180.47366899999906,180.47366899999906,180.47366899999906,180.47366899999906,180.47366899999906,180.47366899999906,181.37874319999537,181.37874319999537,181.37874319999537,182.84691659999953,0.13148148148148148,4.862417099997401,,,,,,,774942,001,2024-10-09_20h21.45.031,WorkingMemory,2023.2.1,61.02524858639031,2024-10-09 20h22.42.352854 -0400,
#00BDFF,"(0.1, -0.1)",#FFF500,"(0.15, -0.25)",#6200FF,"(-0.3, 0.05)",#FF00A7,"(0.2, -0.15)",#2C00FF,"(-0.3, -0.25)",#9700FF,"(0.1, -0.3)",#C1FF00,"(0.2, 0)",#808080,"(0, 0)",0.546875,"(0.1, -0.1)",7,0,32,32,61,,,,,,,,,182.8719029999993,,,,,,,,182.84843229999387,182.8719029999993,184.8557703999977,184.8557703999977,184.8557703999977,184.8557703999977,184.8557703999977,184.8557703999977,184.8557703999977,184.8557703999977,184.87214049999602,185.35662939999747,185.35662939999747,185.35662939999747,185.35662939999747,185.35662939999747,185.35662939999747,185.35662939999747,185.35662939999747,186.255700099995,186.255700099995,186.255700099995,187.71345959999599,0.5333333333333333,4.825932699997793,,,,,,,774942,001,2024-10-09_20h21.45.031,WorkingMemory,2023.2.1,61.02524858639031,2024-10-09 20h22.42.352854 -0400,
#FF0066,"(0.35, 0.2)",#007CFF,"(-0.05, -0.25)",#808080,"(0, 0)",#808080,"(0, 0)",#808080,"(0, 0)",#808080,"(0, 0)",#808080,"(0, 0)",#808080,"(0, 0)",0.9375,"(0.35, 0.2)",2,0,33,33,14,,,,,,,,,187.72416239999438,,,,,,,,187.71500150000065,187.72416239999438,189.72166039999865,189.72166039999865,189.72166039999865,189.72166039999865,189.72166039999865,189.72166039999865,189.72166039999865,189.72166039999865,189.73901659999683,190.2216757999995,190.2216757999995,190.2216757999995,190.2216757999995,190.2216757999995,190.2216757999995,190.2216757999995,190.2216757999995,191.1215710999968,191.1215710999968,191.1215710999968,192.81403979999595,0.8388888888888889,5.077955300002941,,,,,,,774942,001,2024-10-09_20h21.45.031,WorkingMemory,2023.2.1,61.02524858639031,2024-10-09 20h22.42.352854 -0400,
#FFAD00,"(0.2, 0.15)",#FF4E00,"(-0.2, 0)",#8BFF00,"(0.15, -0.1)",#002EFF,"(0.05, -0.25)",#8000FF,"(-0.3, 0.2)",#FF00B9,"(0.3, 0.25)",#FF00DD,"(0.3, -0.05)",#FF0089,"(-0.15, 0.2)",0.1171875,"(0.2, 0.15)",8,0,34,34,74,,,,,,,,,192.8275336000006,,,,,,,,192.8148291999969,192.8275336000006,194.82273079999868,194.82273079999868,194.82273079999868,194.82273079999868,194.82273079999868,194.82273079999868,194.82273079999868,194.82273079999868,194.8382586000007,195.33857549999811,195.33857549999811,195.33857549999811,195.33857549999811,195.33857549999811,195.33857549999811,195.33857549999811,195.33857549999811,196.22224239999923,196.22224239999923,196.22224239999923,198.55655859999388,0.8277777777777777,5.724867799995991,,,,,,,774942,001,2024-10-09_20h21.45.031,WorkingMemory,2023.2.1,61.02524858639031,2024-10-09 20h22.42.352854 -0400,
#FFB300,"(-0.3, -0.3)",#FF00FB,"(0.2, -0.2)",#FFD700,"(0.1, -0.2)",#FF0036,"(0.15, -0.05)",#FFFB00,"(0.3, 0.2)",#0058FF,"(0.3, 0.05)",#FF0042,"(-0.2, -0.3)",#808080,"(0, 0)",0.12109375,"(-0.3, -0.3)",7,0,35,35,69,,,,,,,,,198.57577879999735,,,,,,,,198.55707360000088,198.57577879999735,200.57031879999704,200.57031879999704,200.57031879999704,200.57031879999704,200.57031879999704,200.57031879999704,200.57031879999704,200.57031879999704,200.5873372999995,201.0739209999956,201.0739209999956,201.0739209999956,201.0739209999956,201.0739209999956,201.0739209999956,201.0739209999956,201.0739209999956,201.9718967000008,201.9718967000008,201.9718967000008,203.42401589999645,0.13055555555555554,4.841749800005346,,,,,,,774942,001,2024-10-09_20h21.45.031,WorkingMemory,2023.2.1,61.02524858639031,2024-10-09 20h22.42.352854 -0400,
#00FFD5,"(0.35, 0.05)",#1A00FF,"(-0.3, -0.25)",#FF001E,"(-0.15, -0.3)",#00FF1C,"(0.2, -0.2)",#00FFC3,"(-0.2, -0.15)",#808080,"(0, 0)",#808080,"(0, 0)",#808080,"(0, 0)",0.4765625,"(0.35, 0.05)",5,0,36,36,46,,,,,,,,,203.4361237999983,,,,,,,,203.42461199999525,203.4361237999983,205.437219499996,205.437219499996,205.437219499996,205.437219499996,205.437219499996,205.437219499996,205.437219499996,205.437219499996,205.437219499996,205.93649919999734,205.93649919999734,205.93649919999734,205.93649919999734,205.93649919999734,205.93649919999734,205.93649919999734,205.93649919999734,206.8403862999985,206.8403862999985,206.8403862999985,208.72503439999855,0.46574074074074073,5.280151699997077,,,,,,,774942,001,2024-10-09_20h21.45.031,WorkingMemory,2023.2.1,61.02524858639031,2024-10-09 20h22.42.352854 -0400,
#00FF93,"(-0.2, 0.15)",#00FF87,"(0.35, 0.25)",#00C3FF,"(-0.3, 0.25)",#FF8300,"(-0.3, -0.3)",#FF0600,"(0.15, -0.25)",#808080,"(0, 0)",#808080,"(0, 0)",#808080,"(0, 0)",0.43359375,"(-0.2, 0.15)",5,0,37,37,41,,,,,,,,,208.7358208000005,,,,,,,,208.72595100000035,208.7358208000005,210.73550079999404,210.73550079999404,210.73550079999404,210.73550079999404,210.73550079999404,210.73550079999404,210.73550079999404,210.73550079999404,210.73550079999404,211.23652619999484,211.23652619999484,211.23652619999484,211.23652619999484,211.23652619999484,211.23652619999484,211.23652619999484,211.23652619999484,212.1356253999984,212.1356253999984,212.1356253999984,213.7379473999972,0.4722222222222222,4.997626399999717,,,,,,,774942,001,2024-10-09_20h21.45.031,WorkingMemory,2023.2.1,61.02524858639031,2024-10-09 20h22.42.352854 -0400,
#006AFF,"(-0.2, 0.15)",#FF0089,"(-0.3, -0.05)",#2CFF00,"(-0.35, -0.1)",#FF0060,"(-0.3, -0.15)",#0058FF,"(0.15, -0.3)",#808080,"(0, 0)",#808080,"(0, 0)",#808080,"(0, 0)",0.6015625,"(-0.2, 0.15)",5,0,38,38,49,,,,,,,,,213.75177409999742,,,,,,,,213.73832579999726,213.75177409999742,215.75467299999582,215.75467299999582,215.75467299999582,215.75467299999582,215.75467299999582,215.75467299999582,215.75467299999582,215.75467299999582,215.75467299999582,216.26832839999406,216.26832839999406,216.26832839999406,216.26832839999406,216.26832839999406,216.26832839999406,216.26832839999406,216.26832839999406,217.15231919999496,217.15231919999496,217.15231919999496,218.67531649999728,0.5814814814814815,4.922587699998985,,,,,,,774942,001,2024-10-09_20h21.45.031,WorkingMemory,2023.2.1,61.02524858639031,2024-10-09 20h22.42.352854 -0400,
#0070FF,"(0.35, 0.1)",#FF00E3,"(-0.2, -0.3)",#00FF9F,"(-0.05, -0.25)",#00FFBD,"(0.05, 0)",#EB00FF,"(0.15, 0.05)",#BBFF00,"(-0.3, 0.05)",#FF00CB,"(-0.05, 0.05)",#808080,"(0, 0)",0.59765625,"(0.35, 0.1)",7,0,39,39,63,,,,,,,,,218.70409010000003,,,,,,,,218.67605569999432,218.70409010000003,220.6841720999946,220.6841720999946,220.6841720999946,220.6841720999946,220.6841720999946,220.6841720999946,220.6841720999946,220.6841720999946,220.71746549999807,221.1843749999971,221.1843749999971,221.1843749999971,221.1843749999971,221.1843749999971,221.1843749999971,221.1843749999971,221.1843749999971,222.08415819999937,222.08415819999937,222.08415819999937,224.03728169999522,0.6277777777777778,5.327507299996796,,,,,,,774942,001,2024-10-09_20h21.45.031,WorkingMemory,2023.2.1,61.02524858639031,2024-10-09 20h22.42.352854 -0400,
#00FF04,"(0.3, 0.2)",#4A00FF,"(0.05, 0.15)",#9700FF,"(0.1, 0.05)",#808080,"(0, 0)",#808080,"(0, 0)",#808080,"(0, 0)",#808080,"(0, 0)",#808080,"(0, 0)",0.33984375,"(0.3, 0.2)",3,0,40,40,27,,,,,,,,,224.05015619999904,,,,,,,,224.03779919999943,224.05015619999904,226.0500807999997,226.0500807999997,226.0500807999997,226.0500807999997,226.0500807999997,226.0500807999997,226.0500807999997,226.0500807999997,226.0500807999997,226.55615709999984,226.55615709999984,226.55615709999984,226.55615709999984,226.55615709999984,226.55615709999984,226.55615709999984,226.55615709999984,227.45043189999706,227.45043189999706,227.45043189999706,229.08520119999594,0.37037037037037035,5.028211600001669,,,,,,,774942,001,2024-10-09_20h21.45.031,WorkingMemory,2023.2.1,61.02524858639031,2024-10-09 20h22.42.352854 -0400,
#5C00FF,"(-0.2, 0)",#00FFB1,"(-0.2, -0.25)",#005EFF,"(-0.3, -0.3)",#FF00F5,"(0.05, -0.1)",#9100FF,"(-0.2, -0.2)",#808080,"(0, 0)",#808080,"(0, 0)",#808080,"(0, 0)",0.73046875,"(-0.2, 0)",5,0,41,41,47,,,,,,,,,229.1000472999949,,,,,,,,229.08548719999817,229.1000472999949,231.0996770999991,231.0996770999991,231.0996770999991,231.0996770999991,231.0996770999991,231.0996770999991,231.0996770999991,231.0996770999991,231.0996770999991,231.60032749999664,231.60032749999664,231.60032749999664,231.60032749999664,231.60032749999664,231.60032749999664,231.60032749999664,231.60032749999664,232.4836381999994,232.4836381999994,232.4836381999994,233.85066319999896,0.6370370370370371,4.74517420000484,,,,,,,774942,001,2024-10-09_20h21.45.031,WorkingMemory,2023.2.1,61.02524858639031,2024-10-09 20h22.42.352854 -0400,
#FF005A,"(0.15, 0)",#FF4E00,"(-0.2, 0.05)",#808080,"(0, 0)",#808080,"(0, 0)",#808080,"(0, 0)",#808080,"(0, 0)",#808080,"(0, 0)",#808080,"(0, 0)",0.9453125,"(0.15, 0)",2,0,42,42,18,,,,,,,,,233.86593689999427,,,,,,,,233.85087779999594,233.86593689999427,235.8655601999999,235.8655601999999,235.8655601999999,235.8655601999999,235.8655601999999,235.8655601999999,235.8655601999999,235.8655601999999,235.8655601999999,236.36560449999524,236.36560449999524,236.36560449999524,236.36560449999524,236.36560449999524,236.36560449999524,236.36560449999524,236.36560449999524,237.26565159999882,237.26565159999882,237.26565159999882,238.96874549999484,0.8175925925925926,5.105317699999432,,,,,,,774942,001,2024-10-09_20h21.45.031,WorkingMemory,2023.2.1,61.02524858639031,2024-10-09 20h22.42.352854 -0400,
#00FFB1,"(-0.15, -0.3)",#00FF46,"(0.1, 0)",#A900FF,"(0.3, -0.3)",#FFB300,"(0.05, 0)",#FF5A00,"(0.05, -0.2)",#CDFF00,"(-0.1, -0.1)",#44FF00,"(-0.2, -0.1)",#00B1FF,"(-0.1, 0.05)",0.453125,"(-0.15, -0.3)",8,0,43,43,73,,,,,,,,,238.98180180000054,,,,,,,,238.96924139999464,238.98180180000054,240.96477259999665,240.96477259999665,240.96477259999665,240.96477259999665,240.96477259999665,240.96477259999665,240.96477259999665,240.96477259999665,240.98206550000032,241.46573389999685,241.46573389999685,241.46573389999685,241.46573389999685,241.46573389999685,241.46573389999685,241.46573389999685,241.46573389999685,242.38135340000008,242.38135340000008,242.38135340000008,244.10015149999526,0.46574074074074073,5.113821499995538,,,,,,,774942,001,2024-10-09_20h21.45.031,WorkingMemory,2023.2.1,61.02524858639031,2024-10-09 20h22.42.352854 -0400,
#FF0066,"(-0.1, -0.1)",#FF00A1,"(-0.3, 0.25)",#FF1E00,"(0.25, -0.25)",#FF007E,"(-0.3, 0.05)",#00FFA5,"(0.1, -0.05)",#FF0072,"(-0.15, 0.25)",#808080,"(0, 0)",#808080,"(0, 0)",0.9375,"(-0.1, -0.1)",6,0,44,44,56,,,,,,,,,244.1144467999984,,,,,,,,244.10066119999829,244.1144467999984,246.0976509999964,246.0976509999964,246.0976509999964,246.0976509999964,246.0976509999964,246.0976509999964,246.0976509999964,246.0976509999964,246.11458099999436,246.59803319999628,246.59803319999628,246.59803319999628,246.59803319999628,246.59803319999628,246.59803319999628,246.59803319999628,246.59803319999628,247.51406989999668,247.51406989999668,247.51406989999668,250.11703470000066,0.9083333333333333,5.9971120999980485,,,,,,,774942,001,2024-10-09_20h21.45.031,WorkingMemory,2023.2.1,61.02524858639031,2024-10-09 20h22.42.352854 -0400,
#1AFF00,"(0.15, -0.1)",#C100FF,"(-0.15, -0.05)",#808080,"(0, 0)",#808080,"(0, 0)",#808080,"(0, 0)",#808080,"(0, 0)",#808080,"(0, 0)",#808080,"(0, 0)",0.3203125,"(0.15, -0.1)",2,0,45,45,10,,,,,,,,,250.13004389999696,,,,,,,,250.1176417999959,250.13004389999696,252.13015710000036,252.13015710000036,252.13015710000036,252.13015710000036,252.13015710000036,252.13015710000036,252.13015710000036,252.13015710000036,252.13015710000036,252.6303598999948,252.6303598999948,252.6303598999948,252.6303598999948,252.6303598999948,252.6303598999948,252.6303598999948,252.6303598999948,253.52972799999407,253.52972799999407,253.52972799999407,255.37263220000023,0.3564814814814815,5.232780399994226,,,,,,,774942,001,2024-10-09_20h21.45.031,WorkingMemory,2023.2.1,61.02524858639031,2024-10-09 20h22.42.352854 -0400,
#D9FF00,"(-0.15, 0.25)",#808080,"(0, 0)",#808080,"(0, 0)",#808080,"(0, 0)",#808080,"(0, 0)",#808080,"(0, 0)",#808080,"(0, 0)",#808080,"(0, 0)",0.1953125,"(-0.15, 0.25)",1,0,46,46,6,,,,,,,,,255.38665889999538,,,,,,,,255.3732228000008,255.38665889999538,257.38328779999574,257.38328779999574,257.38328779999574,257.38328779999574,257.38328779999574,257.38328779999574,257.38328779999574,257.38328779999574,257.39577070000087,257.90050379999593,257.90050379999593,257.90050379999593,257.90050379999593,257.90050379999593,257.90050379999593,257.90050379999593,257.90050379999593,258.77959429999464,258.77959429999464,258.77959429999464,260.00074139999924,0.17685185185185187,4.6029853,,,,,,,774942,001,2024-10-09_20h21.45.031,WorkingMemory,2023.2.1,61.02524858639031,2024-10-09 20h22.42.352854 -0400,
#FF0078,"(-0.25, 0.05)",#F1FF00,"(0.2, 0.25)",#FF009B,"(-0.35, -0.05)",#FF3600,"(-0.2, 0.25)",#FF001E,"(0.05, 0.2)",#808080,"(0, 0)",#808080,"(0, 0)",#808080,"(0, 0)",0.92578125,"(-0.25, 0.05)",5,0,47,47,40,,,,,,,,,260.0168690999999,,,,,,,,260.00144519999594,260.0168690999999,262.0125429999971,262.0125429999971,262.0125429999971,262.0125429999971,262.0125429999971,262.0125429999971,262.0125429999971,262.0125429999971,262.02863239999715,262.511946599996,262.511946599996,262.511946599996,262.511946599996,262.511946599996,262.511946599996,262.511946599996,262.511946599996,263.41227349999826,263.41227349999826,263.41227349999826,265.1472761999976,0.875925925925926,5.126810599998862,,,,,,,774942,001,2024-10-09_20h21.45.031,WorkingMemory,2023.2.1,61.02524858639031,2024-10-09 20h22.42.352854 -0400,
#FFA100,"(0.35, 0.25)",#FF4200,"(-0.1, 0)",#A300FF,"(-0.1, 0.05)",#8500FF,"(-0.35, -0.2)",#808080,"(0, 0)",#808080,"(0, 0)",#808080,"(0, 0)",#808080,"(0, 0)",0.109375,"(0.35, 0.25)",4,0,48,48,35,,,,,,,,,265.1615801999942,,,,,,,,265.14768779999577,265.1615801999942,267.16124169999966,267.16124169999966,267.16124169999966,267.16124169999966,267.16124169999966,267.16124169999966,267.16124169999966,267.16124169999966,267.16124169999966,267.66173799999524,267.66173799999524,267.66173799999524,267.66173799999524,267.66173799999524,267.66173799999524,267.66173799999524,267.66173799999524,268.5614585999938,268.5614585999938,268.5614585999938,269.86401159999514,0.12129629629629629,4.701585000002524,,,,,,,774942,001,2024-10-09_20h21.45.031,WorkingMemory,2023.2.1,61.02524858639031,2024-10-09 20h22.42.352854 -0400,
#8000FF,"(-0.25, 0)",#808080,"(0, 0)",#808080,"(0, 0)",#808080,"(0, 0)",#808080,"(0, 0)",#808080,"(0, 0)",#808080,"(0, 0)",#808080,"(0, 0)",0.75390625,"(-0.25, 0)",1,0,49,49,5,,,,,,,,,269.877814499996,,,,,,,,269.86444619999384,269.877814499996,271.87770119999914,271.87770119999914,271.87770119999914,271.87770119999914,271.87770119999914,271.87770119999914,271.87770119999914,271.87770119999914,271.87770119999914,272.3777955999976,272.3777955999976,272.3777955999976,272.3777955999976,272.3777955999976,272.3777955999976,272.3777955999976,272.3777955999976,273.27730589999555,273.27730589999555,273.27730589999555,274.9012956000006,0.7666666666666666,5.011496099999931,,,,,,,774942,001,2024-10-09_20h21.45.031,WorkingMemory,2023.2.1,61.02524858639031,2024-10-09 20h22.42.352854 -0400,
#003AFF,"(0.2, -0.05)",#FFE300,"(0.2, -0.25)",#808080,"(0, 0)",#808080,"(0, 0)",#808080,"(0, 0)",#808080,"(0, 0)",#808080,"(0, 0)",#808080,"(0, 0)",0.6328125,"(0.2, -0.05)",2,0,50,50,11,,,,,,,,,274.92199360000086,,,,,,,,274.9026881999962,274.92199360000086,276.9209692000004,276.9209692000004,276.9209692000004,276.9209692000004,276.9209692000004,276.9209692000004,276.9209692000004,276.9209692000004,276.927485799999,277.4272232999938,277.4272232999938,277.4272232999938,277.4272232999938,277.4272232999938,277.4272232999938,277.4272232999938,277.4272232999938,278.31032419999974,278.31032419999974,278.31032419999974,280.3658202999941,0.6592592592592592,5.438168600005156,,,,,,,774942,001,2024-10-09_20h21.45.031,WorkingMemory,2023.2.1,61.02524858639031,2024-10-09 20h22.42.352854 -0400,
#00B7FF,"(0.15, 0.25)",#0087FF,"(0.35, -0.3)",#AF00FF,"(0, -0.1)",#D300FF,"(0.3, 0.1)",#808080,"(0, 0)",#808080,"(0, 0)",#808080,"(0, 0)",#808080,"(0, 0)",0.55078125,"(0.15, 0.25)",4,0,51,51,36,,,,,,,,,280.37589649999427,,,,,,,,280.36633129999973,280.37589649999427,282.37583879999875,282.37583879999875,282.37583879999875,282.37583879999875,282.37583879999875,282.37583879999875,282.37583879999875,282.37583879999875,282.37583879999875,282.87649399999646,282.87649399999646,282.87649399999646,282.87649399999646,282.87649399999646,282.87649399999646,282.87649399999646,282.87649399999646,283.7757152999984,283.7757152999984,283.7757152999984,285.31555809999554,0.5722222222222222,4.924078000003647,,,,,,,774942,001,2024-10-09_20h21.45.031,WorkingMemory,2023.2.1,61.02524858639031,2024-10-09 20h22.42.352854 -0400,
#00FF9F,"(0.15, 0.15)",#CD00FF,"(-0.2, -0.15)",#002EFF,"(-0.25, 0.1)",#00FF34,"(0.05, 0.25)",#FF7200,"(0, -0.2)",#6800FF,"(-0.1, -0.3)",#00E1FF,"(0.1, 0.05)",#808080,"(0, 0)",0.44140625,"(0.15, 0.15)",7,0,52,52,68,,,,,,,,,285.33406969999487,,,,,,,,285.3174618999983,285.33406969999487,287.3278489000004,287.3278489000004,287.3278489000004,287.3278489000004,287.3278489000004,287.3278489000004,287.3278489000004,287.3278489000004,287.34223389999534,287.8253990999947,287.8253990999947,287.8253990999947,287.8253990999947,287.8253990999947,287.8253990999947,287.8253990999947,287.8253990999947,288.7252958999961,288.7252958999961,288.7252958999961,290.39917559999594,0.45185185185185184,5.0581584999963525,,,,,,,774942,001,2024-10-09_20h21.45.031,WorkingMemory,2023.2.1,61.02524858639031,2024-10-09 20h22.42.352854 -0400,
#5CFF00,"(-0.1, -0.3)",#002EFF,"(0.35, 0.15)",#009FFF,"(0.05, -0.2)",#FFBF00,"(-0.05, -0.1)",#808080,"(0, 0)",#808080,"(0, 0)",#808080,"(0, 0)",#808080,"(0, 0)",0.27734375,"(-0.1, -0.3)",4,0,53,53,34,,,,,,,,,290.41297889999987,,,,,,,,290.400160899997,290.41297889999987,292.4079589999965,292.4079589999965,292.4079589999965,292.4079589999965,292.4079589999965,292.4079589999965,292.4079589999965,292.4079589999965,292.42502959999547,292.9114025999952,292.9114025999952,292.9114025999952,292.9114025999952,292.9114025999952,292.9114025999952,292.9114025999952,292.9114025999952,293.80828809999366,293.80828809999366,293.80828809999366,295.06414049999876,0.3388888888888889,4.634909199994581,,,,,,,774942,001,2024-10-09_20h21.45.031,WorkingMemory,2023.2.1,61.02524858639031,2024-10-09 20h22.42.352854 -0400,
#00FF81,"(0.15, 0)",#8500FF,"(0.15, 0.25)",#FF00DD,"(0, -0.15)",#D3FF00,"(0, 0.25)",#AF00FF,"(-0.35, -0.2)",#1AFF00,"(0.3, 0.2)",#0004FF,"(-0.1, -0.3)",#808080,"(0, 0)",0.421875,"(0.15, 0)",7,0,54,54,66,,,,,,,,,295.0868197999953,,,,,,,,295.06507579999743,295.0868197999953,297.0743497999938,297.0743497999938,297.0743497999938,297.0743497999938,297.0743497999938,297.0743497999938,297.0743497999938,297.0743497999938,297.09104499999376,297.57458889999543,297.57458889999543,297.57458889999543,297.57458889999543,297.57458889999543,297.57458889999543,297.57458889999543,297.57458889999543,298.4740734999941,298.4740734999941,298.4740734999941,300.14379799999733,0.45925925925925926,5.048722699997597,,,,,,,774942,001,2024-10-09_20h21.45.031,WorkingMemory,2023.2.1,61.02524858639031,2024-10-09 20h22.42.352854 -0400,
#91FF00,"(-0.1, -0.1)",#EBFF00,"(0.05, -0.05)",#FF2400,"(0, 0)",#808080,"(0, 0)",#808080,"(0, 0)",#808080,"(0, 0)",#808080,"(0, 0)",#808080,"(0, 0)",0.2421875,"(-0.1, -0.1)",3,0,55,55,24,,,,,,,,,300.15704320000077,,,,,,,,300.1442393999969,300.15704320000077,302.15675889999693,302.15675889999693,302.15675889999693,302.15675889999693,302.15675889999693,302.15675889999693,302.15675889999693,302.15675889999693,302.15675889999693,302.657017599995,302.657017599995,302.657017599995,302.657017599995,302.657017599995,302.657017599995,302.657017599995,302.657017599995,303.55625509999663,303.55625509999663,303.55625509999663,305.09590279999975,0.22592592592592592,4.927866199999698,,,,,,,774942,001,2024-10-09_20h21.45.031,WorkingMemory,2023.2.1,61.02524858639031,2024-10-09 20h22.42.352854 -0400,
#FF000C,"(-0.3, -0.25)",#001CFF,"(0.15, 0)",#8000FF,"(0, -0.1)",#32FF00,"(-0.05, 0.2)",#FFD100,"(-0.35, -0.1)",#26FF00,"(0.35, 0.1)",#FFD700,"(0.05, -0.1)",#FF0012,"(0.1, -0.3)",0.99609375,"(-0.3, -0.25)",8,0,56,56,78,,,,,,,,,305.10619120000047,,,,,,,,305.0968481999953,305.10619120000047,307.1062319999983,307.1062319999983,307.1062319999983,307.1062319999983,307.1062319999983,307.1062319999983,307.1062319999983,307.1062319999983,307.1062319999983,307.60583459999907,307.60583459999907,307.60583459999907,307.60583459999907,307.60583459999907,307.60583459999907,307.60583459999907,307.60583459999907,308.5068533999947,308.5068533999947,308.5068533999947,311.5069035999986,0.8657407407407407,6.388522699999157,,,,,,,774942,001,2024-10-09_20h21.45.031,WorkingMemory,2023.2.1,61.02524858639031,2024-10-09 20h22.42.352854 -0400,
#62FF00,"(0.15, -0.15)",#004CFF,"(0.25, 0.05)",#FFB900,"(0.2, 0)",#00A5FF,"(0.1, -0.05)",#50FF00,"(0.15, 0.25)",#FF00DD,"(0, -0.15)",#FF00E9,"(0.15, 0.1)",#00FFA5,"(0.1, -0.25)",0.2734375,"(0.15, -0.15)",8,0,57,57,75,,,,,,,,,311.5224317999964,,,,,,,,311.50711549999687,311.5224317999964,313.521891599994,313.521891599994,313.521891599994,313.521891599994,313.521891599994,313.521891599994,313.521891599994,313.521891599994,313.521891599994,314.02215859999706,314.02215859999706,314.02215859999706,314.02215859999706,314.02215859999706,314.02215859999706,314.02215859999706,314.02215859999706,314.9051072999937,314.9051072999937,314.9051072999937,316.4247346999982,0.46296296296296297,4.9055372000002535,,,,,,,774942,001,2024-10-09_20h21.45.031,WorkingMemory,2023.2.1,61.02524858639031,2024-10-09 20h22.42.352854 -0400,
#FF8900,"(0.35, 0.2)",#00FFF9,"(-0.15, -0.3)",#FF009B,"(0.3, 0.15)",#00FF2E,"(0.05, 0.1)",#FF3000,"(0.2, -0.3)",#0040FF,"(0.25, 0.2)",#00FF93,"(-0.05, -0.15)",#1400FF,"(0.1, 0.25)",0.09375,"(0.35, 0.2)",8,0,58,58,72,,,,,,,,,316.4469198000006,,,,,,,,316.42536789999576,316.4469198000006,318.42101769999863,318.42101769999863,318.42101769999863,318.42101769999863,318.42101769999863,318.42101769999863,318.42101769999863,318.42101769999863,318.45547429999715,318.9227228999953,318.9227228999953,318.9227228999953,318.9227228999953,318.9227228999953,318.9227228999953,318.9227228999953,318.9227228999953,319.83890959999553,319.83890959999553,319.83890959999553,321.57375379999576,0.11296296296296299,5.1264752999995835,,,,,,,774942,001,2024-10-09_20h21.45.031,WorkingMemory,2023.2.1,61.02524858639031,2024-10-09 20h22.42.352854 -0400,
#0016FF,"(-0.05, -0.15)",#56FF00,"(-0.3, -0.2)",#1A00FF,"(-0.1, 0.2)",#808080,"(0, 0)",#808080,"(0, 0)",#808080,"(0, 0)",#808080,"(0, 0)",#808080,"(0, 0)",0.65625,"(-0.05, -0.15)",3,0,59,59,21,,,,,,,,,321.5883601999958,,,,,,,,321.574323599998,321.5883601999958,323.5891155999998,323.5891155999998,323.5891155999998,323.5891155999998,323.5891155999998,323.5891155999998,323.5891155999998,323.5891155999998,323.5891155999998,324.10422979999566,324.10422979999566,324.10422979999566,324.10422979999566,324.10422979999566,324.10422979999566,324.10422979999566,324.10422979999566,324.9874032999942,324.9874032999942,324.9874032999942,326.60727190000034,0.6685185185185185,5.015061600002809,,,,,,,774942,001,2024-10-09_20h21.45.031,WorkingMemory,2023.2.1,61.02524858639031,2024-10-09 20h22.42.352854 -0400,
#02FF00,"(-0.05, -0.25)",#FF1E00,"(-0.2, -0.05)",#0099FF,"(0.05, 0.25)",#808080,"(0, 0)",#808080,"(0, 0)",#808080,"(0, 0)",#808080,"(0, 0)",#808080,"(0, 0)",0.3359375,"(-0.05, -0.25)",3,0,60,60,25,,,,,,,,,326.61987289999524,,,,,,,,326.6077277000004,326.61987289999524,328.62215459999425,328.62215459999425,328.62215459999425,328.62215459999425,328.62215459999425,328.62215459999425,328.62215459999425,328.62215459999425,328.62215459999425,329.1367812999961,329.1367812999961,329.1367812999961,329.1367812999961,329.1367812999961,329.1367812999961,329.1367812999961,329.1367812999961,330.0247023999982,330.0247023999982,330.0247023999982,331.25915030000033,0.34351851851851856,4.629337500002293,,,,,,,774942,001,2024-10-09_20h21.45.031,WorkingMemory,2023.2.1,61.02524858639031,2024-10-09 20h22.42.352854 -0400,
#FFC500,"(0.05, -0.2)",#3800FF,"(-0.05, 0.25)",#00FF34,"(0.35, 0.2)",#00FF7C,"(-0.15, 0.05)",#808080,"(0, 0)",#808080,"(0, 0)",#808080,"(0, 0)",#808080,"(0, 0)",0.1328125,"(0.05, -0.2)",4,0,61,61,39,,,,,,,,,331.2703496999966,,,,,,,,331.25986600000033,331.2703496999966,333.26938789999986,333.26938789999986,333.26938789999986,333.26938789999986,333.26938789999986,333.26938789999986,333.26938789999986,333.26938789999986,333.26938789999986,333.76916589999746,333.76916589999746,333.76916589999746,333.76916589999746,333.76916589999746,333.76916589999746,333.76916589999746,333.76916589999746,334.66973639999924,334.66973639999924,334.66973639999924,337.5383207999985,0.12129629629629629,6.259947700003977,,,,,,,774942,001,2024-10-09_20h21.45.031,WorkingMemory,2023.2.1,61.02524858639031,2024-10-09 20h22.42.352854 -0400,
#00FFC9,"(0.25, -0.3)",#808080,"(0, 0)",#808080,"(0, 0)",#808080,"(0, 0)",#808080,"(0, 0)",#808080,"(0, 0)",#808080,"(0, 0)",#808080,"(0, 0)",0.46875,"(0.25, -0.3)",1,0,62,62,7,,,,,,,,,337.5519142999983,,,,,,,,337.53875649999827,337.5519142999983,339.5520660999973,339.5520660999973,339.5520660999973,339.5520660999973,339.5520660999973,339.5520660999973,339.5520660999973,339.5520660999973,339.5520660999973,340.0528894999952,340.0528894999952,340.0528894999952,340.0528894999952,340.0528894999952,340.0528894999952,340.0528894999952,340.0528894999952,340.95752229999925,340.95752229999925,340.95752229999925,342.64084779999394,0.4648148148148148,5.077823500003433,,,,,,,774942,001,2024-10-09_20h21.45.031,WorkingMemory,2023.2.1,61.02524858639031,2024-10-09 20h22.42.352854 -0400,
#2C00FF,"(0.25, 0.1)",#C1FF00,"(-0.35, -0.25)",#FFDD00,"(-0.2, 0.2)",#0022FF,"(-0.2, -0.15)",#808080,"(0, 0)",#808080,"(0, 0)",#808080,"(0, 0)",#808080,"(0, 0)",0.69921875,"(0.25, 0.1)",4,0,63,63,38,,,,,,,,,342.6541251999952,,,,,,,,342.6416831999959,342.6541251999952,344.65154529999563,344.65154529999563,344.65154529999563,344.65154529999563,344.65154529999563,344.65154529999563,344.65154529999563,344.65154529999563,344.66817369999626,345.1519199999966,345.1519199999966,345.1519199999966,345.1519199999966,345.1519199999966,345.1519199999966,345.1519199999966,345.1519199999966,346.05657329999667,346.05657329999667,346.05657329999667,349.94492279999395,0.6648148148148147,7.285762300001807,,,,,,,774942,001,2024-10-09_20h21.45.031,WorkingMemory,2023.2.1,61.02524858639031,2024-10-09 20h22.42.352854 -0400,
#A300FF,"(0.05, -0.05)",#AFFF00,"(0.15, -0.25)",#FF00A1,"(-0.05, 0.2)",#FF6600,"(0.05, -0.1)",#FF0066,"(0.1, -0.05)",#808080,"(0, 0)",#808080,"(0, 0)",#808080,"(0, 0)",0.77734375,"(0.05, -0.05)",5,0,64,64,44,,,,,,,,,349.95736109999416,,,,,,,,349.9456615999952,349.95736109999416,351.95020349999686,351.95020349999686,351.95020349999686,351.95020349999686,351.95020349999686,351.95020349999686,351.95020349999686,351.95020349999686,351.96700409999903,352.4498061999984,352.4498061999984,352.4498061999984,352.4498061999984,352.4498061999984,352.4498061999984,352.4498061999984,352.4498061999984,353.35025859999587,353.35025859999587,353.35025859999587,356.053545499999,0.7638888888888888,6.093881400003738,,,,,,,774942,001,2024-10-09_20h21.45.031,WorkingMemory,2023.2.1,61.02524858639031,2024-10-09 20h22.42.352854 -0400,
#6E00FF,"(0.35, 0)",#38FF00,"(0.3, -0.3)",#00FFCF,"(-0.1, -0.2)",#FF6C00,"(0.2, -0.15)",#FFB300,"(-0.2, -0.2)",#808080,"(0, 0)",#808080,"(0, 0)",#808080,"(0, 0)",0.7421875,"(0.35, 0)",5,0,65,65,42,,,,,,,,,356.0662710999968,,,,,,,,356.05394479999813,356.0662710999968,358.06589329999406,358.06589329999406,358.06589329999406,358.06589329999406,358.06589329999406,358.06589329999406,358.06589329999406,358.06589329999406,358.06589329999406,358.5661340999941,358.5661340999941,358.5661340999941,358.5661340999941,358.5661340999941,358.5661340999941,358.5661340999941,358.5661340999941,359.46579629999906,359.46579629999906,359.46579629999906,361.4511175000007,0.7157407407407408,5.374980399996275,,,,,,,774942,001,2024-10-09_20h21.45.031,WorkingMemory,2023.2.1,61.02524858639031,2024-10-09 20h22.42.352854 -0400,
#A900FF,"(0.3, 0)",#0070FF,"(0.2, 0)",#00FF10,"(-0.25, 0)",#808080,"(0, 0)",#808080,"(0, 0)",#808080,"(0, 0)",#808080,"(0, 0)",#808080,"(0, 0)",0.78125,"(0.3, 0)",3,0,66,66,29,,,,,,,,,361.4661802999981,,,,,,,,361.4513858999999,361.4661802999981,363.4657459999944,363.4657459999944,363.4657459999944,363.4657459999944,363.4657459999944,363.4657459999944,363.4657459999944,363.4657459999944,363.4657459999944,363.96584509999957,363.96584509999957,363.96584509999957,363.96584509999957,363.96584509999957,363.96584509999957,363.96584509999957,363.96584509999957,364.86553949999507,364.86553949999507,364.86553949999507,366.52255209999566,0.7851851851851852,5.051646400002937,,,,,,,774942,001,2024-10-09_20h21.45.031,WorkingMemory,2023.2.1,61.02524858639031,2024-10-09 20h22.42.352854 -0400,
#F700FF,"(-0.1, -0.05)",#00FF93,"(-0.3, -0.3)",#FFD100,"(0.1, 0)",#808080,"(0, 0)",#808080,"(0, 0)",#808080,"(0, 0)",#808080,"(0, 0)",#808080,"(0, 0)",0.83203125,"(-0.1, -0.05)",3,0,67,67,26,,,,,,,,,366.54497499999707,,,,,,,,366.5238568999994,366.54497499999707,368.5313867999939,368.5313867999939,368.5313867999939,368.5313867999939,368.5313867999939,368.5313867999939,368.5313867999939,368.5313867999939,368.552088599994,369.03123539999797,369.03123539999797,369.03123539999797,369.03123539999797,369.03123539999797,369.03123539999797,369.03123539999797,369.03123539999797,369.9319878999959,369.9319878999959,369.9319878999959,371.65404999999737,0.8361111111111111,5.097896799998125,,,,,,,774942,001,2024-10-09_20h21.45.031,WorkingMemory,2023.2.1,61.02524858639031,2024-10-09 20h22.42.352854 -0400,
#0076FF,"(0.2, -0.1)",#0028FF,"(0.1, -0.1)",#80FF00,"(-0.15, 0.2)",#62FF00,"(-0.25, 0.2)",#FF6000,"(-0.25, -0.05)",#808080,"(0, 0)",#808080,"(0, 0)",#808080,"(0, 0)",0.59375,"(0.2, -0.1)",5,0,68,68,43,,,,,,,,,371.66501399999834,,,,,,,,371.6546090999982,371.66501399999834,373.66383539999515,373.66383539999515,373.66383539999515,373.66383539999515,373.66383539999515,373.66383539999515,373.66383539999515,373.66383539999515,373.66383539999515,374.1640133999972,374.1640133999972,374.1640133999972,374.1640133999972,374.1640133999972,374.1640133999972,374.1640133999972,374.1640133999972,375.06356079999387,375.06356079999387,375.06356079999387,378.53553579999425,0.7712962962962964,6.8569618000037735,,,,,,,774942,001,2024-10-09_20h21.45.031,WorkingMemory,2023.2.1,61.02524858639031,2024-10-09 20h22.42.352854 -0400,
#FF007E,"(0.15, 0.15)",#FF7E00,"(-0.3, 0)",#7400FF,"(-0.3, -0.15)",#BBFF00,"(0.1, 0.2)",#A900FF,"(-0.05, -0.05)",#B500FF,"(-0.25, 0.25)",#808080,"(0, 0)",#808080,"(0, 0)",0.921875,"(0.15, 0.15)",6,0,69,69,53,,,,,,,,,378.5509213999976,,,,,,,,378.5382485999944,378.5509213999976,380.54987229999824,380.54987229999824,380.54987229999824,380.54987229999824,380.54987229999824,380.54987229999824,380.54987229999824,380.54987229999824,380.54987229999824,381.0629966999986,381.0629966999986,381.0629966999986,381.0629966999986,381.0629966999986,381.0629966999986,381.0629966999986,381.0629966999986,381.94602169999416,381.94602169999416,381.94602169999416,383.71831219999876,0.17685185185185187,5.15305389999412,,,,,,,774942,001,2024-10-09_20h21.45.031,WorkingMemory,2023.2.1,61.02524858639031,2024-10-09 20h22.42.352854 -0400,
#00FF1C,"(0.1, -0.3)",#009FFF,"(-0.1, -0.1)",#808080,"(0, 0)",#808080,"(0, 0)",#808080,"(0, 0)",#808080,"(0, 0)",#808080,"(0, 0)",#808080,"(0, 0)",0.35546875,"(0.1, -0.3)",2,0,70,70,15,,,,,,,,,383.7339401999998,,,,,,,,383.71892579999985,383.7339401999998,385.7300898999965,385.7300898999965,385.7300898999965,385.7300898999965,385.7300898999965,385.7300898999965,385.7300898999965,385.7300898999965,385.7478830999971,386.2299314999982,386.2299314999982,386.2299314999982,386.2299314999982,386.2299314999982,386.2299314999982,386.2299314999982,386.2299314999982,387.1288587999952,387.1288587999952,387.1288587999952,390.397023599995,0.33425925925925926,6.6531813999972655,,,,,,,774942,001,2024-10-09_20h21.45.031,WorkingMemory,2023.2.1,61.02524858639031,2024-10-09 20h22.42.352854 -0400,
#00E7FF,"(0.15, 0.05)",#2600FF,"(0, -0.15)",#00FFB7,"(0.25, -0.1)",#808080,"(0, 0)",#808080,"(0, 0)",#808080,"(0, 0)",#808080,"(0, 0)",#808080,"(0, 0)",0.51953125,"(0.15, 0.05)",3,0,71,71,28,,,,,,,,,390.41180679999525,,,,,,,,390.3973483000009,390.41180679999525,392.4113997999957,392.4113997999957,392.4113997999957,392.4113997999957,392.4113997999957,392.4113997999957,392.4113997999957,392.4113997999957,392.4113997999957,392.91185169999517,392.91185169999517,392.91185169999517,392.91185169999517,392.91185169999517,392.91185169999517,392.91185169999517,392.91185169999517,393.81183749999764,393.81183749999764,393.81183749999764,395.0846875999996,0.5037037037037037,4.667255899999873,,,,,,,774942,001,2024-10-09_20h21.45.031,WorkingMemory,2023.2.1,61.02524858639031,2024-10-09 20h22.42.352854 -0400,
#3E00FF,"(-0.3, 0.1)",#2000FF,"(0.2, 0.15)",#00FF5E,"(0, -0.25)",#56FF00,"(-0.3, 0.05)",#808080,"(0, 0)",#808080,"(0, 0)",#808080,"(0, 0)",#808080,"(0, 0)",0.7109375,"(-0.3, 0.1)",4,0,72,72,30,,,,,,,,,395.0958501999994,,,,,,,,395.08580329999677,395.0958501999994,397.0828352999961,397.0828352999961,397.0828352999961,397.0828352999961,397.0828352999961,397.0828352999961,397.0828352999961,397.0828352999961,397.09563699999853,397.59963819999393,397.59963819999393,397.59963819999393,397.59963819999393,397.59963819999393,397.59963819999393,397.59963819999393,397.59963819999393,398.4940260999938,398.4940260999938,398.4940260999938,400.0826697999946,0.662962962962963,4.978989800001727,,,,,,,774942,001,2024-10-09_20h21.45.031,WorkingMemory,2023.2.1,61.02524858639031,2024-10-09 20h22.42.352854 -0400,
#0081FF,"(0.1, -0.05)",#00FF46,"(0, 0.25)",#0E00FF,"(-0.1, 0)",#808080,"(0, 0)",#808080,"(0, 0)",#808080,"(0, 0)",#808080,"(0, 0)",#808080,"(0, 0)",0.5859375,"(0.1, -0.05)",3,0,73,73,20,,,,,,,,,400.106128499996,,,,,,,,400.08349499999895,400.106128499996,402.093469499996,402.093469499996,402.093469499996,402.093469499996,402.093469499996,402.093469499996,402.093469499996,402.093469499996,402.11066479999863,402.5934846999953,402.5934846999953,402.5934846999953,402.5934846999953,402.5934846999953,402.5934846999953,402.5934846999953,402.5934846999953,403.49321119999513,403.49321119999513,403.49321119999513,405.3331112999949,0.5953703703703703,5.218130100001872,,,,,,,774942,001,2024-10-09_20h21.45.031,WorkingMemory,2023.2.1,61.02524858639031,2024-10-09 20h22.42.352854 -0400,
#00FF64,"(-0.3, 0.2)",#FF00E3,"(0, 0.15)",#0016FF,"(-0.1, -0.3)",#FF0060,"(0, -0.05)",#FF0024,"(0, -0.3)",#00D5FF,"(-0.3, -0.15)",#808080,"(0, 0)",#808080,"(0, 0)",0.40234375,"(-0.3, 0.2)",6,0,74,74,55,,,,,,,,,405.3545671999964,,,,,,,,405.33464280000044,405.3545671999964,407.34715969999525,407.34715969999525,407.34715969999525,407.34715969999525,407.34715969999525,407.34715969999525,407.34715969999525,407.34715969999525,407.3598694999964,407.860096599994,407.860096599994,407.860096599994,407.860096599994,407.860096599994,407.860096599994,407.860096599994,407.860096599994,408.74351979999483,408.74351979999483,408.74351979999483,410.59736110000085,0.45092592592592595,5.23801739999908,,,,,,,774942,001,2024-10-09_20h21.45.031,WorkingMemory,2023.2.1,61.02524858639031,2024-10-09 20h22.42.352854 -0400,
#F1FF00,"(-0.25, 0.15)",#5000FF,"(0.1, -0.3)",#00FF22,"(0.15, 0.25)",#0800FF,"(-0.2, 0.2)",#1AFF00,"(0.2, -0.3)",#FFCB00,"(0.1, 0.15)",#00FFF9,"(0, -0.15)",#68FF00,"(0.15, -0.3)",0.1796875,"(-0.25, 0.15)",8,0,75,75,77,,,,,,,,,410.61613309999666,,,,,,,,410.5978618000008,410.61613309999666,412.60915569999634,412.60915569999634,412.60915569999634,412.60915569999634,412.60915569999634,412.60915569999634,412.60915569999634,412.60915569999634,412.6262929999939,413.1100395999965,413.1100395999965,413.1100395999965,413.1100395999965,413.1100395999965,413.1100395999965,413.1100395999965,413.1100395999965,414.00897729999997,414.00897729999997,414.00897729999997,416.44742259999475,0.2185185185185185,5.8268304000011995,,,,,,,774942,001,2024-10-09_20h21.45.031,WorkingMemory,2023.2.1,61.02524858639031,2024-10-09 20h22.42.352854 -0400,
#00EDFF,"(-0.2, -0.3)",#FF9500,"(0.25, -0.2)",#FF9B00,"(0.25, 0.2)",#6EFF00,"(0.2, 0.15)",#56FF00,"(-0.25, 0.1)",#808080,"(0, 0)",#808080,"(0, 0)",#808080,"(0, 0)",0.515625,"(-0.2, -0.3)",5,0,76,76,48,,,,,,,,,416.4679329999999,,,,,,,,416.44786739999836,416.4679329999999,418.4594231999945,418.4594231999945,418.4594231999945,418.4594231999945,418.4594231999945,418.4594231999945,418.4594231999945,418.4594231999945,418.47441049999907,418.9576039999956,418.9576039999956,418.9576039999956,418.9576039999956,418.9576039999956,418.9576039999956,418.9576039999956,418.9576039999956,419.85781750000024,419.85781750000024,419.85781750000024,421.4588971999983,0.5203703703703704,4.9822474000029615,,,,,,,774942,001,2024-10-09_20h21.45.031,WorkingMemory,2023.2.1,61.02524858639031,2024-10-09 20h22.42.352854 -0400,
#FF0018,"(0.35, 0.1)",#FF0012,"(0.05, 0.25)",#C7FF00,"(-0.3, -0.1)",#005EFF,"(0.15, 0.1)",#FF0006,"(0.05, -0.1)",#A900FF,"(-0.2, -0.05)",#808080,"(0, 0)",#808080,"(0, 0)",0.98828125,"(0.35, 0.1)",6,0,77,77,54,,,,,,,,,421.4739311999947,,,,,,,,421.4593027999945,421.4739311999947,423.4573415999985,423.4573415999985,423.4573415999985,423.4573415999985,423.4573415999985,423.4573415999985,423.4573415999985,423.4573415999985,423.4759952999957,423.957321899994,423.957321899994,423.957321899994,423.957321899994,423.957321899994,423.957321899994,423.957321899994,423.957321899994,424.87404469999456,424.87404469999456,424.87404469999456,427.86391639999783,0,6.382640399999218,,,,,,,774942,001,2024-10-09_20h21.45.031,WorkingMemory,2023.2.1,61.02524858639031,2024-10-09 20h22.42.352854 -0400,
#68FF00,"(0.05, -0.1)",#008DFF,"(-0.15, 0.2)",#F100FF,"(0.05, -0.15)",#FFCB00,"(0.3, -0.15)",#FF7200,"(0.1, 0.15)",#4AFF00,"(0.25, -0.15)",#808080,"(0, 0)",#808080,"(0, 0)",0.26953125,"(0.05, -0.1)",6,0,78,78,50,,,,,,,,,427.87552019999566,,,,,,,,427.86447269999917,427.87552019999566,429.8750574000005,429.8750574000005,429.8750574000005,429.8750574000005,429.8750574000005,429.8750574000005,429.8750574000005,429.8750574000005,429.8898902000001,430.3894435999973,430.3894435999973,430.3894435999973,430.3894435999973,430.3894435999973,430.3894435999973,430.3894435999973,430.3894435999973,431.2733597999977,431.2733597999977,431.2733597999977,432.8075994999963,0.3814814814814815,4.9228386000031605,,,,,,,774942,001,2024-10-09_20h21.45.031,WorkingMemory,2023.2.1,61.02524858639031,2024-10-09 20h22.42.352854 -0400,
#97FF00,"(-0.2, 0.2)",#0070FF,"(0.2, 0.25)",#808080,"(0, 0)",#808080,"(0, 0)",#808080,"(0, 0)",#808080,"(0, 0)",#808080,"(0, 0)",#808080,"(0, 0)",0.23828125,"(-0.2, 0.2)",2,0,79,79,17,,,,,,,,,432.8224712999945,,,,,,,,432.80781829999614,432.8224712999945,434.80653949999396,434.80653949999396,434.80653949999396,434.80653949999396,434.80653949999396,434.80653949999396,434.80653949999396,434.80653949999396,434.8228156999976,435.3099927999938,435.3099927999938,435.3099927999938,435.3099927999938,435.3099927999938,435.3099927999938,435.3099927999938,435.3099927999938,436.20571819999896,436.20571819999896,436.20571819999896,437.63645779999933,0.2361111111111111,4.809852899998077,,,,,,,774942,001,2024-10-09_20h21.45.031,WorkingMemory,2023.2.1,61.02524858639031,2024-10-09 20h22.42.352854 -0400,
,,,,,,,,,,,,,,,,,,,,,,,,,,,,,,,,,,,,,,,,,,,,,,,,,,,,,,,,,,,,,,,,437.63672199999564,437.6488227999944,447.6074088999958,space,9.942428700000164,None,774942,001,2024-10-09_20h21.45.031,WorkingMemory,2023.2.1,61.02524858639031,2024-10-09 20h22.42.352854 -0400,
#002EFF,"(-0.2, -0.2)",#808080,"(0, 0)",#808080,"(0, 0)",#808080,"(0, 0)",#808080,"(0, 0)",#808080,"(0, 0)",#808080,"(0, 0)",#808080,"(0, 0)",0.640625,"(-0.2, -0.2)",1,,,,,0,0,0,8,,,,,447.6617457999964,,,,,,,,447.65458209999633,447.6617457999964,449.6219196999955,449.6219196999955,449.6219196999955,449.6219196999955,449.6219196999955,449.6219196999955,449.6219196999955,449.6219196999955,449.67017099999794,450.1372965999981,450.1372965999981,450.1372965999981,450.1372965999981,450.1372965999981,450.1372965999981,450.1372965999981,450.1372965999981,451.02073359999486,451.02073359999486,451.02073359999486,452.3768376999942,0.6074074074074074,4.70642979999684,,,,,,,774942,001,2024-10-09_20h21.45.031,WorkingMemory,2023.2.1,61.02524858639031,2024-10-09 20h22.42.352854 -0400,
#FF00E3,"(0.25, -0.3)",#FFAD00,"(0.05, 0.25)",#808080,"(0, 0)",#808080,"(0, 0)",#808080,"(0, 0)",#808080,"(0, 0)",#808080,"(0, 0)",#808080,"(0, 0)",0.85546875,"(0.25, -0.3)",2,,,,,0,1,1,17,,,,,452.3919014999992,,,,,,,,452.3786117999989,452.3919014999992,454.3865469999946,454.3865469999946,454.3865469999946,454.3865469999946,454.3865469999946,454.3865469999946,454.3865469999946,454.3865469999946,454.40378029999556,454.88677939999616,454.88677939999616,454.88677939999616,454.88677939999616,454.88677939999616,454.88677939999616,454.88677939999616,454.88677939999616,455.7865543999942,455.7865543999942,455.7865543999942,456.96219120000023,0.8222222222222222,4.55951439999626,,,,,,,774942,001,2024-10-09_20h21.45.031,WorkingMemory,2023.2.1,61.02524858639031,2024-10-09 20h22.42.352854 -0400,
#FF6600,"(-0.2, 0)",#00C9FF,"(-0.25, 0.15)",#E500FF,"(0.05, -0.15)",#00FFCF,"(0.1, 0.2)",#808080,"(0, 0)",#808080,"(0, 0)",#808080,"(0, 0)",#808080,"(0, 0)",0.0703125,"(-0.2, 0)",4,,,,,0,2,2,31,,,,,456.973156299995,,,,,,,,456.9626120999965,456.973156299995,458.96927719999803,458.96927719999803,458.96927719999803,458.96927719999803,458.96927719999803,458.96927719999803,458.96927719999803,458.96927719999803,458.9860484999954,459.46942509999644,459.46942509999644,459.46942509999644,459.46942509999644,459.46942509999644,459.46942509999644,459.46942509999644,459.46942509999644,460.3693723999968,460.3693723999968,460.3693723999968,464.0409972999987,0.5564814814814815,7.055137899995316,,,,,,,774942,001,2024-10-09_20h21.45.031,WorkingMemory,2023.2.1,61.02524858639031,2024-10-09 20h22.42.352854 -0400,
#FFE900,"(-0.15, 0)",#FF00CB,"(-0.3, -0.1)",#FF0042,"(0.1, -0.2)",#FF0060,"(0.1, 0.2)",#FF4E00,"(-0.2, -0.1)",#FF007E,"(0, -0.3)",#0093FF,"(-0.15, 0.1)",#26FF00,"(-0.15, 0.25)",0.15625,"(-0.15, 0)",8,,,,,0,3,3,76,,,,,464.05160559999786,,,,,,,,464.0413234999942,464.05160559999786,466.05211149999377,466.05211149999377,466.05211149999377,466.05211149999377,466.05211149999377,466.05211149999377,466.05211149999377,466.05211149999377,466.05211149999377,466.55186169999797,466.55186169999797,466.55186169999797,466.55186169999797,466.55186169999797,466.55186169999797,466.55186169999797,466.55186169999797,467.4522905999984,467.4522905999984,467.4522905999984,468.8699120999954,0.5425925925925926,4.817025899996224,,,,,,,774942,001,2024-10-09_20h21.45.031,WorkingMemory,2023.2.1,61.02524858639031,2024-10-09 20h22.42.352854 -0400,
#2C00FF,"(-0.15, -0.05)",#00FF10,"(0.15, -0.15)",#00FF7C,"(-0.25, 0.2)",#E5FF00,"(0.35, -0.3)",#00E7FF,"(0, 0.1)",#808080,"(0, 0)",#808080,"(0, 0)",#808080,"(0, 0)",0.69921875,"(-0.15, -0.05)",5,,,,,0,4,4,48,,,,,468.8843341999964,,,,,,,,468.8702959999937,468.8843341999964,470.8894103999992,470.8894103999992,470.8894103999992,470.8894103999992,470.8894103999992,470.8894103999992,470.8894103999992,470.8894103999992,470.8894103999992,471.40141869999934,471.40141869999934,471.40141869999934,471.40141869999934,471.40141869999934,471.40141869999934,471.40141869999934,471.40141869999934,472.290537199995,472.290537199995,472.290537199995,474.05812650000007,0.6194444444444445,5.169532500003697,,,,,,,774942,001,2024-10-09_20h21.45.031,WorkingMemory,2023.2.1,61.02524858639031,2024-10-09 20h22.42.352854 -0400,
#00FF46,"(-0.1, 0.25)",#00CFFF,"(0.05, 0.05)",#0800FF,"(0.2, -0.25)",#FF8F00,"(0.15, -0.3)",#00BDFF,"(0.2, 0.15)",#4400FF,"(0.2, 0.25)",#00FF5E,"(-0.2, 0.25)",#FF0006,"(0.2, -0.1)",0.3828125,"(-0.1, 0.25)",8,,,,,0,5,5,74,,,,,474.0780974999943,,,,,,,,474.0596605999963,474.0780974999943,476.06707049999386,476.06707049999386,476.06707049999386,476.06707049999386,476.06707049999386,476.06707049999386,476.06707049999386,476.06707049999386,476.0838824999955,476.5737567999968,476.5737567999968,476.5737567999968,476.5737567999968,476.5737567999968,476.5737567999968,476.5737567999968,476.5737567999968,477.4675772999981,477.4675772999981,477.4675772999981,479.00696679999965,0.3453703703703704,4.918841600003361,,,,,,,774942,001,2024-10-09_20h21.45.031,WorkingMemory,2023.2.1,61.02524858639031,2024-10-09 20h22.42.352854 -0400,
#FF00D7,"(0.15, 0.1)",#8000FF,"(-0.15, 0.2)",#FF6C00,"(0.3, -0.2)",#FDFF00,"(0.3, -0.1)",#808080,"(0, 0)",#808080,"(0, 0)",#808080,"(0, 0)",#808080,"(0, 0)",0.86328125,"(0.15, 0.1)",4,,,,,0,6,6,39,,,,,479.02029760000005,,,,,,,,479.00747989999945,479.02029760000005,481.0173059000008,481.0173059000008,481.0173059000008,481.0173059000008,481.0173059000008,481.0173059000008,481.0173059000008,481.0173059000008,481.03331509999407,481.5331717999943,481.5331717999943,481.5331717999943,481.5331717999943,481.5331717999943,481.5331717999943,481.5331717999943,481.5331717999943,482.41639980000036,482.41639980000036,482.41639980000036,484.63722399999824,0.8268518518518518,5.612047700000403,,,,,,,774942,001,2024-10-09_20h21.45.031,WorkingMemory,2023.2.1,61.02524858639031,2024-10-09 20h22.42.352854 -0400,
#F1FF00,"(0.05, 0.15)",#AF00FF,"(-0.1, -0.2)",#0087FF,"(-0.05, 0.25)",#808080,"(0, 0)",#808080,"(0, 0)",#808080,"(0, 0)",#808080,"(0, 0)",#808080,"(0, 0)",0.1796875,"(0.05, 0.15)",3,,,,,0,7,7,20,,,,,484.6491470999972,,,,,,,,484.6379119999983,484.6491470999972,486.6493035999956,486.6493035999956,486.6493035999956,486.6493035999956,486.6493035999956,486.6493035999956,486.6493035999956,486.6493035999956,486.6493035999956,487.1492422999945,487.1492422999945,487.1492422999945,487.1492422999945,487.1492422999945,487.1492422999945,487.1492422999945,487.1492422999945,488.0488624999998,488.0488624999998,488.0488624999998,489.35324430000037,0.16203703703703703,4.702376799999911,,,,,,,774942,001,2024-10-09_20h21.45.031,WorkingMemory,2023.2.1,61.02524858639031,2024-10-09 20h22.42.352854 -0400,
#00FFE1,"(0.15, 0)",#00FF4C,"(0.1, 0)",#FF4E00,"(0, 0.05)",#6EFF00,"(0.15, -0.05)",#FF006C,"(-0.15, -0.15)",#00FF04,"(0.1, 0.2)",#FF001E,"(-0.2, -0.05)",#808080,"(0, 0)",0.484375,"(0.15, 0)",7,,,,,0,8,8,63,,,,,489.36491739999474,,,,,,,,489.35356350000075,489.36491739999474,491.3648025000002,491.3648025000002,491.3648025000002,491.3648025000002,491.3648025000002,491.3648025000002,491.3648025000002,491.3648025000002,491.3648025000002,491.86481690000073,491.86481690000073,491.86481690000073,491.86481690000073,491.86481690000073,491.86481690000073,491.86481690000073,491.86481690000073,492.7647613000008,492.7647613000008,492.7647613000008,494.51976920000016,0.5064814814814815,5.151555399999779,,,,,,,774942,001,2024-10-09_20h21.45.031,WorkingMemory,2023.2.1,61.02524858639031,2024-10-09 20h22.42.352854 -0400,
#FF0C00,"(-0.1, -0.25)",#50FF00,"(-0.1, 0)",#AFFF00,"(0, 0.2)",#00A5FF,"(0.05, -0.25)",#00F3FF,"(0, -0.2)",#00FF04,"(-0.1, -0.05)",#FF3600,"(-0.05, -0.05)",#808080,"(0, 0)",0.01171875,"(-0.1, -0.25)",7,,,,,0,9,9,64,,,,,494.5308192999946,,,,,,,,494.5201894999991,494.5308192999946,496.53177519999736,496.53177519999736,496.53177519999736,496.53177519999736,496.53177519999736,496.53177519999736,496.53177519999736,496.53177519999736,496.53177519999736,497.03255699999863,497.03255699999863,497.03255699999863,497.03255699999863,497.03255699999863,497.03255699999863,497.03255699999863,497.03255699999863,497.93236179999803,497.93236179999803,497.93236179999803,499.268593599998,0.3888888888888889,4.729207999997016,,,,,,,774942,001,2024-10-09_20h21.45.031,WorkingMemory,2023.2.1,61.02524858639031,2024-10-09 20h22.42.352854 -0400,
#2C00FF,"(-0.2, 0)",#FF5A00,"(-0.05, -0.05)",#808080,"(0, 0)",#808080,"(0, 0)",#808080,"(0, 0)",#808080,"(0, 0)",#808080,"(0, 0)",#808080,"(0, 0)",0.69921875,"(-0.2, 0)",2,,,,,0,10,10,14,,,,,499.28032529999473,,,,,,,,499.2688756999996,499.28032529999473,501.28146139999444,501.28146139999444,501.28146139999444,501.28146139999444,501.28146139999444,501.28146139999444,501.28146139999444,501.28146139999444,501.28146139999444,501.79683379999915,501.79683379999915,501.79683379999915,501.79683379999915,501.79683379999915,501.79683379999915,501.79683379999915,501.79683379999915,502.6806884999969,502.6806884999969,502.6806884999969,504.41459499999473,0.625,5.126288100000238,,,,,,,774942,001,2024-10-09_20h21.45.031,WorkingMemory,2023.2.1,61.02524858639031,2024-10-09 20h22.42.352854 -0400,
#FD00FF,"(-0.25, -0.3)",#DFFF00,"(-0.3, -0.1)",#00FF58,"(0.2, -0.15)",#5C00FF,"(-0.05, -0.05)",#808080,"(0, 0)",#808080,"(0, 0)",#808080,"(0, 0)",#808080,"(0, 0)",0.8359375,"(-0.25, -0.3)",4,,,,,0,11,11,32,,,,,504.4295251999938,,,,,,,,504.41483469999366,504.4295251999938,506.42991049999546,506.42991049999546,506.42991049999546,506.42991049999546,506.42991049999546,506.42991049999546,506.42991049999546,506.42991049999546,506.42991049999546,506.93342409999605,506.93342409999605,506.93342409999605,506.93342409999605,506.93342409999605,506.93342409999605,506.93342409999605,506.93342409999605,507.83497859999625,507.83497859999625,507.83497859999625,510.0235307999974,0.8222222222222222,5.593098800003645,,,,,,,774942,001,2024-10-09_20h21.45.031,WorkingMemory,2023.2.1,61.02524858639031,2024-10-09 20h22.42.352854 -0400,
#FF0072,"(0, 0)",#FF3C00,"(0.1, -0.2)",#808080,"(0, 0)",#808080,"(0, 0)",#808080,"(0, 0)",#808080,"(0, 0)",#808080,"(0, 0)",#808080,"(0, 0)",0.9296875,"(0, 0)",2,,,,,0,12,12,16,,,,,510.04283349999605,,,,,,,,510.0239564000003,510.04283349999605,512.0289876999959,512.0289876999959,512.0289876999959,512.0289876999959,512.0289876999959,512.0289876999959,512.0289876999959,512.0289876999959,512.0502726999985,512.5292087999987,512.5292087999987,512.5292087999987,512.5292087999987,512.5292087999987,512.5292087999987,512.5292087999987,512.5292087999987,513.4303689000008,513.4303689000008,513.4303689000008,514.6519865999944,0.011111111111111127,4.602691899999627,,,,,,,774942,001,2024-10-09_20h21.45.031,WorkingMemory,2023.2.1,61.02524858639031,2024-10-09 20h22.42.352854 -0400,
#00FF52,"(0.05, -0.05)",#808080,"(0, 0)",#808080,"(0, 0)",#808080,"(0, 0)",#808080,"(0, 0)",#808080,"(0, 0)",#808080,"(0, 0)",#808080,"(0, 0)",0.390625,"(0.05, -0.05)",1,,,,,0,13,13,1,,,,,514.6699105999942,,,,,,,,514.6527891000005,514.6699105999942,516.6618409000002,516.6618409000002,516.6618409000002,516.6618409000002,516.6618409000002,516.6618409000002,516.6618409000002,516.6618409000002,516.6791521999985,517.1620437999954,517.1620437999954,517.1620437999954,517.1620437999954,517.1620437999954,517.1620437999954,517.1620437999954,517.1620437999954,518.0713103999951,518.0713103999951,518.0713103999951,519.0495401999942,0.41574074074074074,4.367323700003908,,,,,,,774942,001,2024-10-09_20h21.45.031,WorkingMemory,2023.2.1,61.02524858639031,2024-10-09 20h22.42.352854 -0400,
#FF0600,"(-0.3, -0.3)",#6200FF,"(0.25, -0.1)",#808080,"(0, 0)",#808080,"(0, 0)",#808080,"(0, 0)",#808080,"(0, 0)",#808080,"(0, 0)",#808080,"(0, 0)",0.0078125,"(-0.3, -0.3)",2,,,,,0,14,14,12,,,,,519.0608165999947,,,,,,,,519.0497644999996,519.0608165999947,521.0623003000001,521.0623003000001,521.0623003000001,521.0623003000001,521.0623003000001,521.0623003000001,521.0623003000001,521.0623003000001,521.0623003000001,521.5840064000004,521.5840064000004,521.5840064000004,521.5840064000004,521.5840064000004,521.5840064000004,521.5840064000004,521.5840064000004,522.4617582999999,522.4617582999999,522.4617582999999,524.3139487999943,0.025000000000000022,5.248085700004594,,,,,,,774942,001,2024-10-09_20h21.45.031,WorkingMemory,2023.2.1,61.02524858639031,2024-10-09 20h22.42.352854 -0400,
#FF7800,"(0.05, 0)",#00FF10,"(-0.05, 0)",#006AFF,"(-0.35, -0.25)",#1A00FF,"(0, 0.2)",#FF5400,"(-0.1, 0.2)",#FF6C00,"(0.2, 0.05)",#808080,"(0, 0)",#808080,"(0, 0)",0.08203125,"(0.05, 0)",6,,,,,0,15,15,53,,,,,524.3271514000007,,,,,,,,524.314555099998,524.3271514000007,526.3271294000006,526.3271294000006,526.3271294000006,526.3271294000006,526.3271294000006,526.3271294000006,526.3271294000006,526.3271294000006,526.3271294000006,526.8274119999987,526.8274119999987,526.8274119999987,526.8274119999987,526.8274119999987,526.8274119999987,526.8274119999987,526.8274119999987,527.7277640999964,527.7277640999964,527.7277640999964,529.7301271999968,0.10833333333333334,5.398078600002918,,,,,,,774942,001,2024-10-09_20h21.45.031,WorkingMemory,2023.2.1,61.02524858639031,2024-10-09 20h22.42.352854 -0400,
#91FF00,"(0.2, -0.05)",#A3FF00,"(-0.3, 0.2)",#00A5FF,"(0, 0.2)",#0040FF,"(0.2, 0.2)",#0076FF,"(-0.25, -0.2)",#808080,"(0, 0)",#808080,"(0, 0)",#808080,"(0, 0)",0.2421875,"(0.2, -0.05)",5,,,,,0,16,16,47,,,,,529.7516952000005,,,,,,,,529.7306450999968,529.7516952000005,531.743177999997,531.743177999997,531.743177999997,531.743177999997,531.743177999997,531.743177999997,531.743177999997,531.743177999997,531.7596147000004,532.2438620999965,532.2438620999965,532.2438620999965,532.2438620999965,532.2438620999965,532.2438620999965,532.2438620999965,532.2438620999965,533.1434305000002,533.1434305000002,533.1434305000002,535.1124869999985,0.2222222222222222,5.358464600001753,,,,,,,774942,001,2024-10-09_20h21.45.031,WorkingMemory,2023.2.1,61.02524858639031,2024-10-09 20h22.42.352854 -0400,
#00FFA5,"(0.35, 0.25)",#4A00FF,"(0.25, 0.1)",#A300FF,"(-0.3, 0.05)",#0093FF,"(0.25, -0.3)",#808080,"(0, 0)",#808080,"(0, 0)",#808080,"(0, 0)",#808080,"(0, 0)",0.4453125,"(0.35, 0.25)",4,,,,,0,17,17,35,,,,,535.1257274999953,,,,,,,,535.1130071000007,535.1257274999953,537.1255995999963,537.1255995999963,537.1255995999963,537.1255995999963,537.1255995999963,537.1255995999963,537.1255995999963,537.1255995999963,537.1255995999963,537.6254472,537.6254472,537.6254472,537.6254472,537.6254472,537.6254472,537.6254472,537.6254472,538.5254690999936,538.5254690999936,538.5254690999936,540.3124902999989,0.44814814814814813,5.185798999998951,,,,,,,774942,001,2024-10-09_20h21.45.031,WorkingMemory,2023.2.1,61.02524858639031,2024-10-09 20h22.42.352854 -0400,
#00C9FF,"(-0.3, -0.2)",#FF2400,"(0.15, 0.1)",#00FF3A,"(0.05, 0.15)",#0052FF,"(-0.05, -0.3)",#B5FF00,"(0.2, 0)",#00FFF3,"(0, 0.2)",#F100FF,"(0.25, 0.25)",#0EFF00,"(0.3, -0.05)",0.5390625,"(-0.3, -0.2)",8,,,,,0,18,18,78,,,,,540.3246884999971,,,,,,,,540.3131089999952,540.3246884999971,542.3296351999961,542.3296351999961,542.3296351999961,542.3296351999961,542.3296351999961,542.3296351999961,542.3296351999961,542.3296351999961,542.3296351999961,542.8417219999974,542.8417219999974,542.8417219999974,542.8417219999974,542.8417219999974,542.8417219999974,542.8417219999974,542.8417219999974,543.7264005999969,543.7264005999969,543.7264005999969,546.5773211999986,0.17592592592592593,6.247710099996766,,,,,,,774942,001,2024-10-09_20h21.45.031,WorkingMemory,2023.2.1,61.02524858639031,2024-10-09 20h22.42.352854 -0400,
#0070FF,"(-0.05, -0.15)",#00CFFF,"(0.1, 0.1)",#00FF64,"(-0.2, 0)",#FFBF00,"(0.3, 0.25)",#BBFF00,"(0.2, -0.05)",#9700FF,"(-0.3, 0.25)",#FF00EF,"(-0.2, -0.25)",#FFEF00,"(0.35, 0.05)",0.59765625,"(-0.05, -0.15)",8,,,,,0,19,19,70,,,,,546.5929681999987,,,,,,,,546.577772699995,546.5929681999987,548.5930322999993,548.5930322999993,548.5930322999993,548.5930322999993,548.5930322999993,548.5930322999993,548.5930322999993,548.5930322999993,548.5930322999993,549.1073623999982,549.1073623999982,549.1073623999982,549.1073623999982,549.1073623999982,549.1073623999982,549.1073623999982,549.1073623999982,549.9907375999974,549.9907375999974,549.9907375999974,551.8972921999957,0.5907407407407408,5.2985341000021435,,,,,,,774942,001,2024-10-09_20h21.45.031,WorkingMemory,2023.2.1,61.02524858639031,2024-10-09 20h22.42.352854 -0400,
#FF005A,"(-0.2, -0.1)",#CDFF00,"(-0.2, -0.15)",#808080,"(0, 0)",#808080,"(0, 0)",#808080,"(0, 0)",#808080,"(0, 0)",#808080,"(0, 0)",#808080,"(0, 0)",0.9453125,"(-0.2, -0.1)",2,,,,,0,20,20,10,,,,,551.9100771999947,,,,,,,,551.8978562999982,551.9100771999947,553.9067297000001,553.9067297000001,553.9067297000001,553.9067297000001,553.9067297000001,553.9067297000001,553.9067297000001,553.9067297000001,553.923143299995,554.4096390999985,554.4096390999985,554.4096390999985,554.4096390999985,554.4096390999985,554.4096390999985,554.4096390999985,554.4096390999985,555.3075065999947,555.3075065999947,555.3075065999947,557.6648296999992,0.8870370370370371,5.742207100003725,,,,,,,774942,001,2024-10-09_20h21.45.031,WorkingMemory,2023.2.1,61.02524858639031,2024-10-09 20h22.42.352854 -0400,
#00FFA5,"(0.25, 0.15)",#808080,"(0, 0)",#808080,"(0, 0)",#808080,"(0, 0)",#808080,"(0, 0)",#808080,"(0, 0)",#808080,"(0, 0)",#808080,"(0, 0)",0.4453125,"(0.25, 0.15)",1,,,,,0,21,21,7,,,,,557.692936899999,,,,,,,,557.665817999994,557.692936899999,559.6725420000002,559.6725420000002,559.6725420000002,559.6725420000002,559.6725420000002,559.6725420000002,559.6725420000002,559.6725420000002,559.7058547999986,560.1724197000003,560.1724197000003,560.1724197000003,560.1724197000003,560.1724197000003,560.1724197000003,560.1724197000003,560.1724197000003,561.0726536999937,561.0726536999937,561.0726536999937,562.8590643999996,0.44074074074074077,5.16144340000028,,,,,,,774942,001,2024-10-09_20h21.45.031,WorkingMemory,2023.2.1,61.02524858639031,2024-10-09 20h22.42.352854 -0400,
#FF8F00,"(-0.1, -0.1)",#00FF93,"(-0.1, 0.25)",#808080,"(0, 0)",#808080,"(0, 0)",#808080,"(0, 0)",#808080,"(0, 0)",#808080,"(0, 0)",#808080,"(0, 0)",0.09765625,"(-0.1, -0.1)",2,,,,,0,22,22,19,,,,,562.8719162999987,,,,,,,,562.8596034000002,562.8719162999987,564.8726300999988,564.8726300999988,564.8726300999988,564.8726300999988,564.8726300999988,564.8726300999988,564.8726300999988,564.8726300999988,564.8726300999988,565.3722049999997,565.3722049999997,565.3722049999997,565.3722049999997,565.3722049999997,565.3722049999997,565.3722049999997,565.3722049999997,566.2722708000001,566.2722708000001,566.2722708000001,568.1593799999973,0.11203703703703705,5.279996699995536,,,,,,,774942,001,2024-10-09_20h21.45.031,WorkingMemory,2023.2.1,61.02524858639031,2024-10-09 20h22.42.352854 -0400,
#FFC500,"(-0.05, -0.25)",#FFD700,"(-0.2, 0.1)",#00FF3A,"(0, -0.2)",#0004FF,"(0.1, 0.15)",#00FF64,"(0.15, -0.25)",#808080,"(0, 0)",#808080,"(0, 0)",#808080,"(0, 0)",0.1328125,"(-0.05, -0.25)",5,,,,,0,23,23,40,,,,,568.1787350999948,,,,,,,,568.1599239999996,568.1787350999948,570.1567649999997,570.1567649999997,570.1567649999997,570.1567649999997,570.1567649999997,570.1567649999997,570.1567649999997,570.1567649999997,570.190213599999,570.6709717999984,570.6709717999984,570.6709717999984,570.6709717999984,570.6709717999984,570.6709717999984,570.6709717999984,570.6709717999984,571.5727457999965,571.5727457999965,571.5727457999965,573.758963399996,0.1527777777777778,5.5702313000001595,,,,,,,774942,001,2024-10-09_20h21.45.031,WorkingMemory,2023.2.1,61.02524858639031,2024-10-09 20h22.42.352854 -0400,
#00FFF3,"(0.3, -0.1)",#FF00D1,"(0.25, 0)",#FF6600,"(-0.2, -0.1)",#FFDD00,"(0.2, 0.2)",#FF00CB,"(0.15, -0.25)",#808080,"(0, 0)",#808080,"(0, 0)",#808080,"(0, 0)",0.49609375,"(0.3, -0.1)",5,,,,,0,24,24,41,,,,,573.7703524999961,,,,,,,,573.7591766999976,573.7703524999961,575.7725829999981,575.7725829999981,575.7725829999981,575.7725829999981,575.7725829999981,575.7725829999981,575.7725829999981,575.7725829999981,575.7725829999981,576.2869569999966,576.2869569999966,576.2869569999966,576.2869569999966,576.2869569999966,576.2869569999966,576.2869569999966,576.2869569999966,577.1533793999988,577.1533793999988,577.1533793999988,579.4053719000003,0.837962962962963,5.635612199999741,,,,,,,774942,001,2024-10-09_20h21.45.031,WorkingMemory,2023.2.1,61.02524858639031,2024-10-09 20h22.42.352854 -0400,
#FF00D7,"(-0.3, 0.15)",#FFBF00,"(0, 0.25)",#00FF16,"(-0.05, -0.05)",#808080,"(0, 0)",#808080,"(0, 0)",#808080,"(0, 0)",#808080,"(0, 0)",#808080,"(0, 0)",0.86328125,"(-0.3, 0.15)",3,,,,,0,25,25,25,,,,,579.4197480000003,,,,,,,,579.4058254999982,579.4197480000003,581.4245272999979,581.4245272999979,581.4245272999979,581.4245272999979,581.4245272999979,581.4245272999979,581.4245272999979,581.4245272999979,581.4245272999979,581.9396565999996,581.9396565999996,581.9396565999996,581.9396565999996,581.9396565999996,581.9396565999996,581.9396565999996,581.9396565999996,582.8026391999956,582.8026391999956,582.8026391999956,583.8597568999976,0.8425925925925926,4.436467599996831,,,,,,,774942,001,2024-10-09_20h21.45.031,WorkingMemory,2023.2.1,61.02524858639031,2024-10-09 20h22.42.352854 -0400,
#FF3C00,"(0.3, -0.25)",#00FF6A,"(0.2, -0.15)",#62FF00,"(-0.05, -0.2)",#A9FF00,"(0.35, -0.3)",#FFFB00,"(0.05, 0.25)",#00FFBD,"(-0.1, -0.25)",#808080,"(0, 0)",#808080,"(0, 0)",0.04296875,"(0.3, -0.25)",6,,,,,0,26,26,55,,,,,583.8705148999943,,,,,,,,583.8602832999968,583.8705148999943,585.8707779999968,585.8707779999968,585.8707779999968,585.8707779999968,585.8707779999968,585.8707779999968,585.8707779999968,585.8707779999968,585.8707779999968,586.3690375000006,586.3690375000006,586.3690375000006,586.3690375000006,586.3690375000006,586.3690375000006,586.3690375000006,586.3690375000006,587.2696080999958,587.2696080999958,587.2696080999958,591.9742227999959,0.16296296296296298,8.096012000001792,,,,,,,774942,001,2024-10-09_20h21.45.031,WorkingMemory,2023.2.1,61.02524858639031,2024-10-09 20h22.42.352854 -0400,
#2CFF00,"(0.1, 0.2)",#808080,"(0, 0)",#808080,"(0, 0)",#808080,"(0, 0)",#808080,"(0, 0)",#808080,"(0, 0)",#808080,"(0, 0)",#808080,"(0, 0)",0.30859375,"(0.1, 0.2)",1,,,,,0,27,27,9,,,,,591.985136999996,,,,,,,,591.9748229999968,591.985136999996,593.9848035999967,593.9848035999967,593.9848035999967,593.9848035999967,593.9848035999967,593.9848035999967,593.9848035999967,593.9848035999967,593.9848035999967,594.4845638999977,594.4845638999977,594.4845638999977,594.4845638999977,594.4845638999977,594.4845638999977,594.4845638999977,594.4845638999977,595.3849829999963,595.3849829999963,595.3849829999963,597.1385227999999,0.29074074074074074,5.147938699999941,,,,,,,774942,001,2024-10-09_20h21.45.031,WorkingMemory,2023.2.1,61.02524858639031,2024-10-09 20h22.42.352854 -0400,
#6800FF,"(0.2, 0.1)",#00FF22,"(0.1, 0.2)",#00FFBD,"(0.35, 0)",#0022FF,"(-0.25, 0.05)",#00FFB1,"(0.25, 0.05)",#0076FF,"(-0.25, -0.3)",#808080,"(0, 0)",#808080,"(0, 0)",0.73828125,"(0.2, 0.1)",6,,,,,0,28,28,57,,,,,597.155585499997,,,,,,,,597.1390165999983,597.155585499997,599.1508652999983,599.1508652999983,599.1508652999983,599.1508652999983,599.1508652999983,599.1508652999983,599.1508652999983,599.1508652999983,599.1678810999947,599.6517719999974,599.6517719999974,599.6517719999974,599.6517719999974,599.6517719999974,599.6517719999974,599.6517719999974,599.6517719999974,600.5517488999976,600.5517488999976,600.5517488999976,602.9227585999979,0.7453703703703703,5.756954099997529,,,,,,,774942,001,2024-10-09_20h21.45.031,WorkingMemory,2023.2.1,61.02524858639031,2024-10-09 20h22.42.352854 -0400,
#2C00FF,"(0.25, 0.2)",#FF8300,"(-0.15, 0.1)",#1A00FF,"(-0.05, -0.2)",#FF9500,"(-0.25, 0.05)",#A3FF00,"(0.2, 0.2)",#F100FF,"(-0.05, 0.2)",#808080,"(0, 0)",#808080,"(0, 0)",0.69921875,"(0.25, 0.2)",6,,,,,0,29,29,54,,,,,602.9447478000002,,,,,,,,602.9234117999949,602.9447478000002,604.933105899996,604.933105899996,604.933105899996,604.933105899996,604.933105899996,604.933105899996,604.933105899996,604.933105899996,604.9502724999984,605.4333104999969,605.4333104999969,605.4333104999969,605.4333104999969,605.4333104999969,605.4333104999969,605.4333104999969,605.4333104999969,606.333375299997,606.333375299997,606.333375299997,607.8055888999952,0.6657407407407407,4.847982499995851,,,,,,,774942,001,2024-10-09_20h21.45.031,WorkingMemory,2023.2.1,61.02524858639031,2024-10-09 20h22.42.352854 -0400,
#0052FF,"(-0.1, -0.05)",#56FF00,"(-0.2, -0.25)",#FFB300,"(0.3, -0.1)",#AF00FF,"(-0.25, -0.25)",#00FF70,"(0, 0.2)",#006AFF,"(-0.15, 0.05)",#001CFF,"(0.05, -0.25)",#FFF500,"(0.35, 0.2)",0.6171875,"(-0.1, -0.05)",8,,,,,0,30,30,72,,,,,607.8159717999952,,,,,,,,607.8068228999982,607.8159717999952,609.816256399994,609.816256399994,609.816256399994,609.816256399994,609.816256399994,609.816256399994,609.816256399994,609.816256399994,609.816256399994,610.3161952999944,610.3161952999944,610.3161952999944,610.3161952999944,610.3161952999944,610.3161952999944,610.3161952999944,610.3161952999944,611.2156628999946,611.2156628999946,611.2156628999946,612.6046518999938,0.5990740740740741,4.781906500000332,,,,,,,774942,001,2024-10-09_20h21.45.031,WorkingMemory,2023.2.1,61.02524858639031,2024-10-09 20h22.42.352854 -0400,
#4AFF00,"(0.1, -0.1)",#FFA100,"(-0.3, 0.25)",#FF00A1,"(0.25, 0.15)",#0028FF,"(0, 0.05)",#BBFF00,"(-0.2, 0.15)",#808080,"(0, 0)",#808080,"(0, 0)",#808080,"(0, 0)",0.2890625,"(0.1, -0.1)",5,,,,,0,31,31,42,,,,,612.6247497999939,,,,,,,,612.6053090999994,612.6247497999939,614.615032099995,614.615032099995,614.615032099995,614.615032099995,614.615032099995,614.615032099995,614.615032099995,614.615032099995,614.6327402999959,615.1151242999986,615.1151242999986,615.1151242999986,615.1151242999986,615.1151242999986,615.1151242999986,615.1151242999986,615.1151242999986,616.0171850999977,616.0171850999977,616.0171850999977,617.9006272999977,0.4537037037037037,5.263973000000988,,,,,,,774942,001,2024-10-09_20h21.45.031,WorkingMemory,2023.2.1,61.02524858639031,2024-10-09 20h22.42.352854 -0400,
#0064FF,"(0.35, 0.1)",#00FF5E,"(-0.05, -0.05)",#BB00FF,"(-0.35, -0.05)",#004CFF,"(-0.2, 0.1)",#AFFF00,"(0.25, 0.05)",#0070FF,"(-0.1, 0.15)",#00FF58,"(-0.1, 0.2)",#808080,"(0, 0)",0.60546875,"(0.35, 0.1)",7,,,,,0,32,32,60,,,,,617.9155331999937,,,,,,,,617.9011624999985,617.9155331999937,619.9145437999978,619.9145437999978,619.9145437999978,619.9145437999978,619.9145437999978,619.9145437999978,619.9145437999978,619.9145437999978,619.9145437999978,620.4145455999969,620.4145455999969,620.4145455999969,620.4145455999969,620.4145455999969,620.4145455999969,620.4145455999969,620.4145455999969,621.3207206999941,621.3207206999941,621.3207206999941,623.1063932999969,0.6777777777777778,5.180474200002209,,,,,,,774942,001,2024-10-09_20h21.45.031,WorkingMemory,2023.2.1,61.02524858639031,2024-10-09 20h22.42.352854 -0400,
#00FFA5,"(0, -0.15)",#00FFAB,"(0.25, -0.2)",#808080,"(0, 0)",#808080,"(0, 0)",#808080,"(0, 0)",#808080,"(0, 0)",#808080,"(0, 0)",#808080,"(0, 0)",0.4453125,"(0, -0.15)",2,,,,,0,33,33,13,,,,,623.1184968999951,,,,,,,,623.1074261999966,623.1184968999951,625.1218310999975,625.1218310999975,625.1218310999975,625.1218310999975,625.1218310999975,625.1218310999975,625.1218310999975,625.1218310999975,625.130871399997,625.6307132999937,625.6307132999937,625.6307132999937,625.6307132999937,625.6307132999937,625.6307132999937,625.6307132999937,625.6307132999937,626.519950599999,626.519950599999,626.519950599999,628.1672751000006,0.46574074074074073,5.0381581999972695,,,,,,,774942,001,2024-10-09_20h21.45.031,WorkingMemory,2023.2.1,61.02524858639031,2024-10-09 20h22.42.352854 -0400,
#DF00FF,"(-0.1, -0.3)",#8500FF,"(-0.1, -0.1)",#0099FF,"(-0.25, 0.2)",#00FF2E,"(-0.15, -0.3)",#808080,"(0, 0)",#808080,"(0, 0)",#808080,"(0, 0)",#808080,"(0, 0)",0.81640625,"(-0.1, -0.3)",4,,,,,0,34,34,30,,,,,628.179745399997,,,,,,,,628.1678276999955,628.179745399997,630.1800274999987,630.1800274999987,630.1800274999987,630.1800274999987,630.1800274999987,630.1800274999987,630.1800274999987,630.1800274999987,630.1800274999987,630.6801081999947,630.6801081999947,630.6801081999947,630.6801081999947,630.6801081999947,630.6801081999947,630.6801081999947,630.6801081999947,631.5797677999944,631.5797677999944,631.5797677999944,634.4857049999991,0.837037037037037,6.2942258999974,,,,,,,774942,001,2024-10-09_20h21.45.031,WorkingMemory,2023.2.1,61.02524858639031,2024-10-09 20h22.42.352854 -0400,
#2C00FF,"(0.3, 0.15)",#808080,"(0, 0)",#808080,"(0, 0)",#808080,"(0, 0)",#808080,"(0, 0)",#808080,"(0, 0)",#808080,"(0, 0)",#808080,"(0, 0)",0.69921875,"(0.3, 0.15)",1,,,,,0,35,35,3,,,,,634.5069354000007,,,,,,,,634.4872131999946,634.5069354000007,636.4956706999947,636.4956706999947,636.4956706999947,636.4956706999947,636.4956706999947,636.4956706999947,636.4956706999947,636.4956706999947,636.5129003999973,636.995629099998,636.995629099998,636.995629099998,636.995629099998,636.995629099998,636.995629099998,636.995629099998,636.995629099998,637.8956073999943,637.8956073999943,637.8956073999943,639.202517699996,0.6564814814814814,4.680784099997254,,,,,,,774942,001,2024-10-09_20h21.45.031,WorkingMemory,2023.2.1,61.02524858639031,2024-10-09 20h22.42.352854 -0400,
#FF0089,"(0.1, 0.1)",#00FF58,"(0.15, -0.2)",#B5FF00,"(-0.2, 0.2)",#FF0054,"(0.1, -0.25)",#00FF1C,"(-0.3, -0.2)",#E500FF,"(-0.25, 0.15)",#FF7200,"(0.05, 0)",#9DFF00,"(0.1, -0.15)",0.9140625,"(0.1, 0.1)",8,,,,,0,36,36,73,,,,,639.2273418999976,,,,,,,,639.2040382999985,639.2273418999976,641.2130854999996,641.2130854999996,641.2130854999996,641.2130854999996,641.2130854999996,641.2130854999996,641.2130854999996,641.2130854999996,641.2282810999968,641.7137107999952,641.7137107999952,641.7137107999952,641.7137107999952,641.7137107999952,641.7137107999952,641.7137107999952,641.7137107999952,642.6129940999963,642.6129940999963,642.6129940999963,645.3795380999945,0.8305555555555555,6.141906000004383,,,,,,,774942,001,2024-10-09_20h21.45.031,WorkingMemory,2023.2.1,61.02524858639031,2024-10-09 20h22.42.352854 -0400,
#4AFF00,"(0.1, 0.05)",#14FF00,"(-0.25, -0.25)",#00CFFF,"(0.05, 0.15)",#808080,"(0, 0)",#808080,"(0, 0)",#808080,"(0, 0)",#808080,"(0, 0)",#808080,"(0, 0)",0.2890625,"(0.1, 0.05)",3,,,,,0,37,37,28,,,,,645.3948812999952,,,,,,,,645.3797739999936,645.3948812999952,647.3977854999976,647.3977854999976,647.3977854999976,647.3977854999976,647.3977854999976,647.3977854999976,647.3977854999976,647.3977854999976,647.3977854999976,647.8942702999993,647.8942702999993,647.8942702999993,647.8942702999993,647.8942702999993,647.8942702999993,647.8942702999993,647.8942702999993,648.7957529999985,648.7957529999985,648.7957529999985,649.9693020999985,0.35,4.5670192999969,,,,,,,774942,001,2024-10-09_20h21.45.031,WorkingMemory,2023.2.1,61.02524858639031,2024-10-09 20h22.42.352854 -0400,
#74FF00,"(0.3, 0.2)",#FF0095,"(0.25, 0.1)",#00D5FF,"(0.05, 0.25)",#FF00AD,"(-0.05, 0.05)",#808080,"(0, 0)",#808080,"(0, 0)",#808080,"(0, 0)",#808080,"(0, 0)",0.26171875,"(0.3, 0.2)",4,,,,,0,38,38,38,,,,,649.985334099998,,,,,,,,649.970600099994,649.985334099998,651.9768496999968,651.9768496999968,651.9768496999968,651.9768496999968,651.9768496999968,651.9768496999968,651.9768496999968,651.9768496999968,651.9980289999949,652.4774789999938,652.4774789999938,652.4774789999938,652.4774789999938,652.4774789999938,652.4774789999938,652.4774789999938,652.4774789999938,653.3784409,653.3784409,653.3784409,655.0968570999976,0.4175925925925926,5.105314599997655,,,,,,,774942,001,2024-10-09_20h21.45.031,WorkingMemory,2023.2.1,61.02524858639031,2024-10-09 20h22.42.352854 -0400,
#FF0006,"(-0.05, 0.05)",#9700FF,"(-0.25, -0.25)",#EBFF00,"(0.1, 0.2)",#FFE900,"(-0.05, -0.15)",#00FFDB,"(0.2, -0.25)",#FF0600,"(0.05, 0.2)",#0087FF,"(0, -0.3)",#0004FF,"(0.2, 0.15)",1,"(-0.05, 0.05)",8,,,,,0,39,39,71,,,,,655.1096949999992,,,,,,,,655.0974512999965,655.1096949999992,657.1097283999989,657.1097283999989,657.1097283999989,657.1097283999989,657.1097283999989,657.1097283999989,657.1097283999989,657.1097283999989,657.1097283999989,657.610397599994,657.610397599994,657.610397599994,657.610397599994,657.610397599994,657.610397599994,657.610397599994,657.610397599994,658.509303699997,658.509303699997,658.509303699997,662.0463243999984,0.6342592592592593,6.929774299998826,,,,,,,774942,001,2024-10-09_20h21.45.031,WorkingMemory,2023.2.1,61.02524858639031,2024-10-09 20h22.42.352854 -0400,
#00E1FF,"(-0.3, 0.05)",#FF4200,"(0.15, -0.05)",#00FFF3,"(0.05, -0.15)",#0070FF,"(-0.05, 0.1)",#FF00BF,"(-0.05, 0.05)",#00FFDB,"(0.05, 0.2)",#808080,"(0, 0)",#808080,"(0, 0)",0.5234375,"(-0.3, 0.05)",6,,,,,0,40,40,58,,,,,662.0610438000003,,,,,,,,662.046954999998,662.0610438000003,664.0600766999996,664.0600766999996,664.0600766999996,664.0600766999996,664.0600766999996,664.0600766999996,664.0600766999996,664.0600766999996,664.0755845999956,664.575327999999,664.575327999999,664.575327999999,664.575327999999,664.575327999999,664.575327999999,664.575327999999,664.575327999999,665.4585504999995,665.4585504999995,665.4585504999995,667.2951132999951,0.5416666666666666,5.226950200005376,,,,,,,774942,001,2024-10-09_20h21.45.031,WorkingMemory,2023.2.1,61.02524858639031,2024-10-09 20h22.42.352854 -0400,
#00FFDB,"(-0.15, -0.1)",#808080,"(0, 0)",#808080,"(0, 0)",#808080,"(0, 0)",#808080,"(0, 0)",#808080,"(0, 0)",#808080,"(0, 0)",#808080,"(0, 0)",0.48046875,"(-0.15, -0.1)",1,,,,,0,41,41,2,,,,,667.3081240999963,,,,,,,,667.2956311999951,667.3081240999963,669.3107553000009,669.3107553000009,669.3107553000009,669.3107553000009,669.3107553000009,669.3107553000009,669.3107553000009,669.3107553000009,669.3107553000009,669.8248031999974,669.8248031999974,669.8248031999974,669.8248031999974,669.8248031999974,669.8248031999974,669.8248031999974,669.8248031999974,670.7090891999978,670.7090891999978,670.7090891999978,672.4993961,0.4666666666666667,5.175509200002125,,,,,,,774942,001,2024-10-09_20h21.45.031,WorkingMemory,2023.2.1,61.02524858639031,2024-10-09 20h22.42.352854 -0400,
